subj,session,trial,rt,object_response,category,condition,imagename
dino_v8,1,1,NaN,bicycle,truck,30,0001_ps_dnn_30_truck_10_n03417042_14861.png
dino_v8,1,2,NaN,knife,keyboard,0,0002_ps_dnn_0_keyboard_10_n03085013_25476.png
dino_v8,1,3,NaN,cat,elephant,0,0003_ps_dnn_0_elephant_10_n02504013_3087.png
dino_v8,1,4,NaN,knife,cat,30,0004_ps_dnn_30_cat_10_n02123394_4633.png
dino_v8,1,5,NaN,boat,knife,120,0005_ps_dnn_120_knife_10_n03041632_48151.png
dino_v8,1,6,NaN,knife,bicycle,60,0006_ps_dnn_60_bicycle_10_n02835271_1075.png
dino_v8,1,7,NaN,clock,bear,180,0007_ps_dnn_180_bear_10_n02134084_10289.png
dino_v8,1,8,NaN,knife,keyboard,0,0008_ps_dnn_0_keyboard_10_n03085013_21967.png
dino_v8,1,9,NaN,clock,oven,150,0009_ps_dnn_150_oven_10_n04111531_5737.png
dino_v8,1,10,NaN,clock,elephant,60,0010_ps_dnn_60_elephant_10_n02504458_8141.png
dino_v8,1,11,NaN,clock,elephant,90,0011_ps_dnn_90_elephant_10_n02504458_3153.png
dino_v8,1,12,NaN,cat,bear,60,0012_ps_dnn_60_bear_10_n02134418_5807.png
dino_v8,1,13,NaN,elephant,boat,0,0013_ps_dnn_0_boat_10_n04273569_15322.png
dino_v8,1,14,NaN,knife,knife,0,0014_ps_dnn_0_knife_10_n03041632_42526.png
dino_v8,1,15,NaN,clock,bicycle,30,0015_ps_dnn_30_bicycle_10_n02835271_5886.png
dino_v8,1,16,NaN,clock,dog,180,0016_ps_dnn_180_dog_10_n02110063_869.png
dino_v8,1,17,NaN,clock,bicycle,180,0017_ps_dnn_180_bicycle_10_n03792782_3334.png
dino_v8,1,18,NaN,knife,airplane,0,0018_ps_dnn_0_airplane_10_n02690373_7355.png
dino_v8,1,19,NaN,bicycle,bird,120,0019_ps_dnn_120_bird_10_n01798484_2289.png
dino_v8,1,20,NaN,cat,knife,60,0020_ps_dnn_60_knife_10_n03041632_87380.png
dino_v8,1,21,NaN,keyboard,bird,0,0021_ps_dnn_0_bird_10_n02027492_15639.png
dino_v8,1,22,NaN,knife,bird,0,0022_ps_dnn_0_bird_10_n02006656_7153.png
dino_v8,1,23,NaN,bird,boat,60,0023_ps_dnn_60_boat_10_n04612504_14699.png
dino_v8,1,24,NaN,knife,bear,60,0024_ps_dnn_60_bear_10_n02134418_5971.png
dino_v8,1,25,NaN,knife,dog,90,0025_ps_dnn_90_dog_10_n02110063_16680.png
dino_v8,1,26,NaN,clock,car,90,0026_ps_dnn_90_car_10_n03100240_6010.png
dino_v8,1,27,NaN,clock,elephant,30,0027_ps_dnn_30_elephant_10_n02504458_9835.png
dino_v8,1,28,NaN,clock,airplane,30,0028_ps_dnn_30_airplane_10_n02690373_10207.png
dino_v8,1,29,NaN,truck,bottle,180,0029_ps_dnn_180_bottle_10_n03983396_5532.png
dino_v8,1,30,NaN,keyboard,dog,30,0030_ps_dnn_30_dog_10_n02090622_1485.png
dino_v8,1,31,NaN,clock,truck,150,0031_ps_dnn_150_truck_10_n03417042_5503.png
dino_v8,1,32,NaN,clock,bear,180,0032_ps_dnn_180_bear_10_n02133161_897.png
dino_v8,1,33,NaN,clock,keyboard,180,0033_ps_dnn_180_keyboard_10_n04505470_4579.png
dino_v8,1,34,NaN,knife,bird,60,0034_ps_dnn_60_bird_10_n01592084_5833.png
dino_v8,1,35,NaN,keyboard,dog,0,0035_ps_dnn_0_dog_10_n02090379_3514.png
dino_v8,1,36,NaN,clock,airplane,180,0036_ps_dnn_180_airplane_10_n02690373_6144.png
dino_v8,1,37,NaN,knife,airplane,90,0037_ps_dnn_90_airplane_10_n02690373_1436.png
dino_v8,1,38,NaN,clock,clock,120,0038_ps_dnn_120_clock_10_n04548280_354.png
dino_v8,1,39,NaN,knife,keyboard,0,0039_ps_dnn_0_keyboard_10_n03085013_2189.png
dino_v8,1,40,NaN,clock,chair,120,0040_ps_dnn_120_chair_10_n04099969_9005.png
dino_v8,1,41,NaN,clock,bicycle,180,0041_ps_dnn_180_bicycle_10_n02835271_7350.png
dino_v8,1,42,NaN,chair,bottle,150,0042_ps_dnn_150_bottle_10_n04557648_8320.png
dino_v8,1,43,NaN,chair,dog,0,0043_ps_dnn_0_dog_10_n02105641_6503.png
dino_v8,1,44,NaN,clock,clock,90,0044_ps_dnn_90_clock_10_n04548280_6022.png
dino_v8,1,45,NaN,bicycle,clock,60,0045_ps_dnn_60_clock_10_n03196217_7414.png
dino_v8,1,46,NaN,boat,oven,150,0046_ps_dnn_150_oven_10_n04111531_7965.png
dino_v8,1,47,NaN,airplane,bottle,90,0047_ps_dnn_90_bottle_10_n04579145_4594.png
dino_v8,1,48,NaN,airplane,bottle,30,0048_ps_dnn_30_bottle_10_n03983396_4564.png
dino_v8,1,49,NaN,clock,cat,60,0049_ps_dnn_60_cat_10_n02125311_54015.png
dino_v8,1,50,NaN,clock,bicycle,150,0050_ps_dnn_150_bicycle_10_n03792782_5133.png
dino_v8,1,51,NaN,knife,bird,120,0051_ps_dnn_120_bird_10_n02018207_6296.png
dino_v8,1,52,NaN,knife,bird,30,0052_ps_dnn_30_bird_10_n01817953_11996.png
dino_v8,1,53,NaN,clock,keyboard,150,0053_ps_dnn_150_keyboard_10_n03085013_3148.png
dino_v8,1,54,NaN,bicycle,bear,60,0054_ps_dnn_60_bear_10_n02134418_5537.png
dino_v8,1,55,NaN,clock,cat,150,0055_ps_dnn_150_cat_10_n02125311_11409.png
dino_v8,1,56,NaN,keyboard,knife,30,0056_ps_dnn_30_knife_10_n03041632_3063.png
dino_v8,1,57,NaN,clock,dog,60,0057_ps_dnn_60_dog_10_n02106550_6424.png
dino_v8,1,58,NaN,car,bear,30,0058_ps_dnn_30_bear_10_n02133161_7032.png
dino_v8,1,59,NaN,clock,cat,150,0059_ps_dnn_150_cat_10_n02125311_5570.png
dino_v8,1,60,NaN,knife,bird,30,0060_ps_dnn_30_bird_10_n01843383_13894.png
dino_v8,1,61,NaN,clock,bottle,60,0061_ps_dnn_60_bottle_10_n03983396_2205.png
dino_v8,1,62,NaN,knife,bicycle,60,0062_ps_dnn_60_bicycle_10_n03792782_31010.png
dino_v8,1,63,NaN,clock,bottle,60,0063_ps_dnn_60_bottle_10_n02823428_880.png
dino_v8,1,64,NaN,truck,car,180,0064_ps_dnn_180_car_10_n02814533_40459.png
dino_v8,1,65,NaN,clock,cat,120,0065_ps_dnn_120_cat_10_n02123045_567.png
dino_v8,1,66,NaN,clock,knife,120,0066_ps_dnn_120_knife_10_n03041632_24541.png
dino_v8,1,67,NaN,chair,elephant,30,0067_ps_dnn_30_elephant_10_n02504458_8644.png
dino_v8,1,68,NaN,clock,keyboard,0,0068_ps_dnn_0_keyboard_10_n03085013_2166.png
dino_v8,1,69,NaN,knife,boat,90,0069_ps_dnn_90_boat_10_n04273569_13972.png
dino_v8,1,70,NaN,clock,airplane,150,0070_ps_dnn_150_airplane_10_n02690373_9432.png
dino_v8,1,71,NaN,keyboard,truck,90,0071_ps_dnn_90_truck_10_n03417042_5228.png
dino_v8,1,72,NaN,knife,airplane,0,0072_ps_dnn_0_airplane_10_n02690373_4294.png
dino_v8,1,73,NaN,knife,chair,30,0073_ps_dnn_30_chair_10_n04099969_52474.png
dino_v8,1,74,NaN,knife,oven,30,0074_ps_dnn_30_oven_10_n04111531_21822.png
dino_v8,1,75,NaN,clock,oven,150,0075_ps_dnn_150_oven_10_n04111531_15735.png
dino_v8,1,76,NaN,bird,dog,120,0076_ps_dnn_120_dog_10_n02104029_7335.png
dino_v8,1,77,NaN,clock,truck,150,0077_ps_dnn_150_truck_10_n03417042_17911.png
dino_v8,1,78,NaN,bear,clock,30,0078_ps_dnn_30_clock_10_n02708093_899.png
dino_v8,1,79,NaN,cat,boat,60,0079_ps_dnn_60_boat_10_n03662601_9590.png
dino_v8,1,80,NaN,clock,chair,90,0080_ps_dnn_90_chair_10_n02791124_6550.png
dino_v8,1,81,NaN,clock,clock,180,0081_ps_dnn_180_clock_10_n03196217_4492.png
dino_v8,1,82,NaN,knife,car,30,0082_ps_dnn_30_car_10_n04285008_14128.png
dino_v8,1,83,NaN,knife,bicycle,60,0083_ps_dnn_60_bicycle_10_n02835271_4730.png
dino_v8,1,84,NaN,knife,elephant,0,0084_ps_dnn_0_elephant_10_n02504458_62.png
dino_v8,1,85,NaN,bicycle,dog,120,0085_ps_dnn_120_dog_10_n02086646_8144.png
dino_v8,1,86,NaN,keyboard,knife,60,0086_ps_dnn_60_knife_10_n03041632_1671.png
dino_v8,1,87,NaN,clock,bird,180,0087_ps_dnn_180_bird_10_n01534433_10801.png
dino_v8,1,88,NaN,clock,keyboard,150,0088_ps_dnn_150_keyboard_10_n03085013_20570.png
dino_v8,1,89,NaN,truck,knife,150,0089_ps_dnn_150_knife_10_n03041632_4808.png
dino_v8,1,90,NaN,clock,keyboard,180,0090_ps_dnn_180_keyboard_10_n03085013_1808.png
dino_v8,1,91,NaN,clock,truck,120,0091_ps_dnn_120_truck_10_n03796401_4370.png
dino_v8,1,92,NaN,knife,airplane,60,0092_ps_dnn_60_airplane_10_n02690373_6314.png
dino_v8,1,93,NaN,boat,oven,90,0093_ps_dnn_90_oven_10_n04111531_4879.png
dino_v8,1,94,NaN,truck,airplane,180,0094_ps_dnn_180_airplane_10_n02690373_4375.png
dino_v8,1,95,NaN,cat,bottle,60,0095_ps_dnn_60_bottle_10_n04557648_4133.png
dino_v8,1,96,NaN,cat,bicycle,120,0096_ps_dnn_120_bicycle_10_n02835271_19213.png
dino_v8,1,97,NaN,clock,bear,150,0097_ps_dnn_150_bear_10_n02132136_10577.png
dino_v8,1,98,NaN,chair,airplane,90,0098_ps_dnn_90_airplane_10_n02690373_3147.png
dino_v8,1,99,NaN,cat,elephant,60,0099_ps_dnn_60_elephant_10_n02504013_10389.png
dino_v8,1,100,NaN,truck,chair,150,0100_ps_dnn_150_chair_10_n02791124_5685.png
dino_v8,1,101,NaN,bicycle,bird,60,0101_ps_dnn_60_bird_10_n01817953_6333.png
dino_v8,1,102,NaN,boat,keyboard,90,0102_ps_dnn_90_keyboard_10_n03085013_20247.png
dino_v8,1,103,NaN,elephant,airplane,0,0103_ps_dnn_0_airplane_10_n02690373_5729.png
dino_v8,1,104,NaN,knife,bicycle,90,0104_ps_dnn_90_bicycle_10_n03792782_55532.png
dino_v8,1,105,NaN,knife,bicycle,0,0105_ps_dnn_0_bicycle_10_n02835271_8417.png
dino_v8,1,106,NaN,bird,clock,60,0106_ps_dnn_60_clock_10_n03196217_599.png
dino_v8,1,107,NaN,elephant,airplane,0,0107_ps_dnn_0_airplane_10_n02690373_1952.png
dino_v8,1,108,NaN,clock,bear,180,0108_ps_dnn_180_bear_10_n02134084_23061.png
dino_v8,1,109,NaN,clock,bicycle,150,0109_ps_dnn_150_bicycle_10_n03792782_27445.png
dino_v8,1,110,NaN,knife,clock,30,0110_ps_dnn_30_clock_10_n03196217_6348.png
dino_v8,1,111,NaN,bicycle,bear,90,0111_ps_dnn_90_bear_10_n02132136_5778.png
dino_v8,1,112,NaN,knife,boat,90,0112_ps_dnn_90_boat_10_n04273569_4772.png
dino_v8,1,113,NaN,clock,oven,180,0113_ps_dnn_180_oven_10_n04111531_23830.png
dino_v8,1,114,NaN,clock,bird,150,0114_ps_dnn_150_bird_10_n01855032_1306.png
dino_v8,1,115,NaN,bird,elephant,60,0115_ps_dnn_60_elephant_10_n02504013_8905.png
dino_v8,1,116,NaN,clock,truck,60,0116_ps_dnn_60_truck_10_n04467665_30461.png
dino_v8,1,117,NaN,clock,knife,60,0117_ps_dnn_60_knife_10_n03041632_20662.png
dino_v8,1,118,NaN,clock,boat,180,0118_ps_dnn_180_boat_10_n03662601_15915.png
dino_v8,1,119,NaN,chair,boat,150,0119_ps_dnn_150_boat_10_n04273569_62.png
dino_v8,1,120,NaN,clock,bicycle,180,0120_ps_dnn_180_bicycle_10_n03792782_8080.png
dino_v8,1,121,NaN,truck,airplane,120,0121_ps_dnn_120_airplane_10_n02690373_10309.png
dino_v8,1,122,NaN,chair,dog,30,0122_ps_dnn_30_dog_10_n02093859_1001.png
dino_v8,1,123,NaN,bear,oven,0,0123_ps_dnn_0_oven_10_n04111531_15267.png
dino_v8,1,124,NaN,knife,cat,90,0124_ps_dnn_90_cat_10_n02124075_81.png
dino_v8,1,125,NaN,keyboard,elephant,60,0125_ps_dnn_60_elephant_10_n02504013_7314.png
dino_v8,1,126,NaN,clock,bottle,120,0126_ps_dnn_120_bottle_10_n03983396_3294.png
dino_v8,1,127,NaN,knife,cat,60,0127_ps_dnn_60_cat_10_n02123159_3201.png
dino_v8,1,128,NaN,bicycle,dog,90,0128_ps_dnn_90_dog_10_n02101388_11601.png
dino_v8,1,129,NaN,knife,cat,30,0129_ps_dnn_30_cat_10_n02123597_4442.png
dino_v8,1,130,NaN,elephant,airplane,30,0130_ps_dnn_30_airplane_10_n02690373_1950.png
dino_v8,1,131,NaN,bicycle,bird,120,0131_ps_dnn_120_bird_10_n01616318_4652.png
dino_v8,1,132,NaN,knife,airplane,90,0132_ps_dnn_90_airplane_10_n02690373_17937.png
dino_v8,1,133,NaN,clock,clock,30,0133_ps_dnn_30_clock_10_n02708093_1125.png
dino_v8,1,134,NaN,clock,elephant,150,0134_ps_dnn_150_elephant_10_n02504458_6499.png
dino_v8,1,135,NaN,bicycle,clock,30,0135_ps_dnn_30_clock_10_n02708093_51.png
dino_v8,1,136,NaN,bicycle,bicycle,90,0136_ps_dnn_90_bicycle_10_n02835271_13180.png
dino_v8,1,137,NaN,truck,cat,120,0137_ps_dnn_120_cat_10_n02123597_7297.png
dino_v8,1,138,NaN,bicycle,clock,30,0138_ps_dnn_30_clock_10_n04548280_1109.png
dino_v8,1,139,NaN,bicycle,clock,60,0139_ps_dnn_60_clock_10_n04548280_1304.png
dino_v8,1,140,NaN,clock,bird,180,0140_ps_dnn_180_bird_10_n01833805_8179.png
dino_v8,1,141,NaN,airplane,bottle,60,0141_ps_dnn_60_bottle_10_n03983396_24525.png
dino_v8,1,142,NaN,truck,elephant,120,0142_ps_dnn_120_elephant_10_n02504013_5945.png
dino_v8,1,143,NaN,chair,airplane,120,0143_ps_dnn_120_airplane_10_n02690373_13610.png
dino_v8,1,144,NaN,boat,knife,90,0144_ps_dnn_90_knife_10_n03041632_21859.png
dino_v8,1,145,NaN,chair,cat,60,0145_ps_dnn_60_cat_10_n02123045_568.png
dino_v8,1,146,NaN,truck,clock,180,0146_ps_dnn_180_clock_10_n02708093_960.png
dino_v8,1,147,NaN,clock,bicycle,120,0147_ps_dnn_120_bicycle_10_n02835271_9669.png
dino_v8,1,148,NaN,knife,cat,60,0148_ps_dnn_60_cat_10_n02123597_14647.png
dino_v8,1,149,NaN,knife,bicycle,0,0149_ps_dnn_0_bicycle_10_n02835271_7794.png
dino_v8,1,150,NaN,knife,bird,0,0150_ps_dnn_0_bird_10_n02011460_5925.png
dino_v8,1,151,NaN,bicycle,oven,90,0151_ps_dnn_90_oven_10_n04111531_8852.png
dino_v8,1,152,NaN,clock,knife,90,0152_ps_dnn_90_knife_10_n03041632_84086.png
dino_v8,1,153,NaN,keyboard,car,60,0153_ps_dnn_60_car_10_n03100240_13602.png
dino_v8,1,154,NaN,clock,dog,180,0154_ps_dnn_180_dog_10_n02106662_43958.png
dino_v8,1,155,NaN,car,chair,30,0155_ps_dnn_30_chair_10_n02791124_1292.png
dino_v8,1,156,NaN,clock,dog,90,0156_ps_dnn_90_dog_10_n02085782_4522.png
dino_v8,1,157,NaN,bear,bear,60,0157_ps_dnn_60_bear_10_n02132136_686.png
dino_v8,1,158,NaN,clock,bird,120,0158_ps_dnn_120_bird_10_n01796340_12914.png
dino_v8,1,159,NaN,airplane,knife,60,0159_ps_dnn_60_knife_10_n03041632_24060.png
dino_v8,1,160,NaN,clock,bottle,180,0160_ps_dnn_180_bottle_10_n03983396_4775.png
dino_v8,1,161,NaN,chair,keyboard,120,0161_ps_dnn_120_keyboard_10_n04505470_1516.png
dino_v8,1,162,NaN,clock,boat,150,0162_ps_dnn_150_boat_10_n03344393_4944.png
dino_v8,1,163,NaN,clock,cat,150,0163_ps_dnn_150_cat_10_n02123159_3524.png
dino_v8,1,164,NaN,knife,truck,60,0164_ps_dnn_60_truck_10_n04467665_50648.png
dino_v8,1,165,NaN,keyboard,dog,0,0165_ps_dnn_0_dog_10_n02107574_1277.png
dino_v8,1,166,NaN,chair,oven,60,0166_ps_dnn_60_oven_10_n04111531_21980.png
dino_v8,1,167,NaN,clock,boat,120,0167_ps_dnn_120_boat_10_n03344393_11315.png
dino_v8,1,168,NaN,clock,knife,90,0168_ps_dnn_90_knife_10_n03041632_32896.png
dino_v8,1,169,NaN,cat,bottle,30,0169_ps_dnn_30_bottle_10_n03937543_3133.png
dino_v8,1,170,NaN,clock,car,180,0170_ps_dnn_180_car_10_n04285008_15213.png
dino_v8,1,171,NaN,truck,elephant,90,0171_ps_dnn_90_elephant_10_n02504013_3081.png
dino_v8,1,172,NaN,knife,cat,60,0172_ps_dnn_60_cat_10_n02123159_6873.png
dino_v8,1,173,NaN,clock,bottle,60,0173_ps_dnn_60_bottle_10_n04579145_4385.png
dino_v8,1,174,NaN,clock,bear,60,0174_ps_dnn_60_bear_10_n02134418_2185.png
dino_v8,1,175,NaN,clock,chair,150,0175_ps_dnn_150_chair_10_n04429376_16002.png
dino_v8,1,176,NaN,knife,car,60,0176_ps_dnn_60_car_10_n03100240_8107.png
dino_v8,1,177,NaN,oven,boat,60,0177_ps_dnn_60_boat_10_n04273569_15906.png
dino_v8,1,178,NaN,chair,car,150,0178_ps_dnn_150_car_10_n02814533_85659.png
dino_v8,1,179,NaN,chair,car,150,0179_ps_dnn_150_car_10_n02814533_87140.png
dino_v8,1,180,NaN,truck,keyboard,30,0180_ps_dnn_30_keyboard_10_n03085013_7520.png
dino_v8,1,181,NaN,clock,dog,90,0181_ps_dnn_90_dog_10_n02112018_10082.png
dino_v8,1,182,NaN,clock,bear,90,0182_ps_dnn_90_bear_10_n02134084_5733.png
dino_v8,1,183,NaN,clock,cat,90,0183_ps_dnn_90_cat_10_n02123597_3821.png
dino_v8,1,184,NaN,clock,boat,120,0184_ps_dnn_120_boat_10_n04612504_15256.png
dino_v8,1,185,NaN,keyboard,car,90,0185_ps_dnn_90_car_10_n02814533_84296.png
dino_v8,1,186,NaN,clock,clock,120,0186_ps_dnn_120_clock_10_n04548280_5295.png
dino_v8,1,187,NaN,knife,airplane,30,0187_ps_dnn_30_airplane_10_n02690373_11799.png
dino_v8,1,188,NaN,clock,dog,120,0188_ps_dnn_120_dog_10_n02092002_9876.png
dino_v8,1,189,NaN,clock,chair,0,0189_ps_dnn_0_chair_10_n02791124_16885.png
dino_v8,1,190,NaN,airplane,airplane,60,0190_ps_dnn_60_airplane_10_n02690373_9376.png
dino_v8,1,191,NaN,clock,oven,180,0191_ps_dnn_180_oven_10_n04111531_6474.png
dino_v8,1,192,NaN,clock,knife,180,0192_ps_dnn_180_knife_10_n03041632_44230.png
dino_v8,1,193,NaN,clock,dog,180,0193_ps_dnn_180_dog_10_n02099601_6318.png
dino_v8,1,194,NaN,clock,cat,150,0194_ps_dnn_150_cat_10_n02125311_20241.png
dino_v8,1,195,NaN,clock,truck,120,0195_ps_dnn_120_truck_10_n04467665_51397.png
dino_v8,1,196,NaN,knife,dog,0,0196_ps_dnn_0_dog_10_n02104365_1500.png
dino_v8,1,197,NaN,clock,knife,90,0197_ps_dnn_90_knife_10_n03041632_3171.png
dino_v8,1,198,NaN,knife,oven,60,0198_ps_dnn_60_oven_10_n04111531_249.png
dino_v8,1,199,NaN,clock,bear,90,0199_ps_dnn_90_bear_10_n02133161_8856.png
dino_v8,1,200,NaN,knife,cat,0,0200_ps_dnn_0_cat_10_n02123045_13354.png
dino_v8,1,201,NaN,clock,keyboard,120,0201_ps_dnn_120_keyboard_10_n03085013_23267.png
dino_v8,1,202,NaN,knife,truck,30,0202_ps_dnn_30_truck_10_n03796401_22643.png
dino_v8,1,203,NaN,clock,elephant,180,0203_ps_dnn_180_elephant_10_n02504458_4572.png
dino_v8,1,204,NaN,clock,truck,180,0204_ps_dnn_180_truck_10_n04467665_23173.png
dino_v8,1,205,NaN,clock,bear,180,0205_ps_dnn_180_bear_10_n02134418_25040.png
dino_v8,1,206,NaN,keyboard,bicycle,60,0206_ps_dnn_60_bicycle_10_n02835271_21185.png
dino_v8,1,207,NaN,bicycle,boat,30,0207_ps_dnn_30_boat_10_n02951358_12664.png
dino_v8,1,208,NaN,clock,bottle,30,0208_ps_dnn_30_bottle_10_n03983396_11519.png
dino_v8,1,209,NaN,clock,knife,120,0209_ps_dnn_120_knife_10_n03041632_36280.png
dino_v8,1,210,NaN,clock,truck,60,0210_ps_dnn_60_truck_10_n04467665_67115.png
dino_v8,1,211,NaN,airplane,bear,30,0211_ps_dnn_30_bear_10_n02133161_1560.png
dino_v8,1,212,NaN,clock,truck,180,0212_ps_dnn_180_truck_10_n03417042_6780.png
dino_v8,1,213,NaN,clock,bear,150,0213_ps_dnn_150_bear_10_n02134084_20261.png
dino_v8,1,214,NaN,clock,chair,180,0214_ps_dnn_180_chair_10_n03376595_8377.png
dino_v8,1,215,NaN,clock,bird,180,0215_ps_dnn_180_bird_10_n01824575_3556.png
dino_v8,1,216,NaN,bicycle,chair,90,0216_ps_dnn_90_chair_10_n04099969_36004.png
dino_v8,1,217,NaN,knife,bicycle,0,0217_ps_dnn_0_bicycle_10_n02835271_22549.png
dino_v8,1,218,NaN,chair,clock,150,0218_ps_dnn_150_clock_10_n04548280_8535.png
dino_v8,1,219,NaN,clock,knife,120,0219_ps_dnn_120_knife_10_n03041632_14546.png
dino_v8,1,220,NaN,airplane,keyboard,0,0220_ps_dnn_0_keyboard_10_n04505470_4974.png
dino_v8,1,221,NaN,elephant,clock,0,0221_ps_dnn_0_clock_10_n04548280_487.png
dino_v8,1,222,NaN,bicycle,truck,30,0222_ps_dnn_30_truck_10_n03417042_10401.png
dino_v8,1,223,NaN,boat,clock,180,0223_ps_dnn_180_clock_10_n03196217_6257.png
dino_v8,1,224,NaN,truck,elephant,120,0224_ps_dnn_120_elephant_10_n02504458_1698.png
dino_v8,1,225,NaN,clock,keyboard,180,0225_ps_dnn_180_keyboard_10_n03085013_23014.png
dino_v8,1,226,NaN,car,cat,60,0226_ps_dnn_60_cat_10_n02125311_17002.png
dino_v8,1,227,NaN,clock,boat,180,0227_ps_dnn_180_boat_10_n03344393_5566.png
dino_v8,1,228,NaN,clock,bicycle,150,0228_ps_dnn_150_bicycle_10_n02835271_4887.png
dino_v8,1,229,NaN,clock,keyboard,120,0229_ps_dnn_120_keyboard_10_n04505470_8386.png
dino_v8,1,230,NaN,clock,bear,120,0230_ps_dnn_120_bear_10_n02133161_361.png
dino_v8,1,231,NaN,chair,bottle,0,0231_ps_dnn_0_bottle_10_n04560804_2165.png
dino_v8,1,232,NaN,clock,cat,150,0232_ps_dnn_150_cat_10_n02124075_14020.png
dino_v8,1,233,NaN,clock,clock,150,0233_ps_dnn_150_clock_10_n04548280_3301.png
dino_v8,1,234,NaN,bottle,knife,180,0234_ps_dnn_180_knife_10_n03041632_5820.png
dino_v8,1,235,NaN,chair,oven,120,0235_ps_dnn_120_oven_10_n04111531_2922.png
dino_v8,1,236,NaN,clock,bear,120,0236_ps_dnn_120_bear_10_n02134084_7441.png
dino_v8,1,237,NaN,clock,airplane,150,0237_ps_dnn_150_airplane_10_n02690373_8252.png
dino_v8,1,238,NaN,clock,bird,150,0238_ps_dnn_150_bird_10_n02018207_69.png
dino_v8,1,239,NaN,knife,bird,30,0239_ps_dnn_30_bird_10_n01798484_5355.png
dino_v8,1,240,NaN,clock,keyboard,150,0240_ps_dnn_150_keyboard_10_n03085013_4999.png
dino_v8,1,241,NaN,clock,dog,120,0241_ps_dnn_120_dog_10_n02111500_3041.png
dino_v8,1,242,NaN,knife,boat,0,0242_ps_dnn_0_boat_10_n04612504_15237.png
dino_v8,1,243,NaN,clock,truck,150,0243_ps_dnn_150_truck_10_n03417042_6480.png
dino_v8,1,244,NaN,chair,airplane,180,0244_ps_dnn_180_airplane_10_n02690373_8382.png
dino_v8,1,245,NaN,truck,bottle,120,0245_ps_dnn_120_bottle_10_n04591713_2345.png
dino_v8,1,246,NaN,clock,elephant,60,0246_ps_dnn_60_elephant_10_n02504458_9516.png
dino_v8,1,247,NaN,clock,elephant,180,0247_ps_dnn_180_elephant_10_n02504013_698.png
dino_v8,1,248,NaN,knife,bear,0,0248_ps_dnn_0_bear_10_n02133161_5292.png
dino_v8,1,249,NaN,bicycle,boat,90,0249_ps_dnn_90_boat_10_n02951358_14341.png
dino_v8,1,250,NaN,clock,bear,120,0250_ps_dnn_120_bear_10_n02133161_2304.png
dino_v8,1,251,NaN,clock,airplane,150,0251_ps_dnn_150_airplane_10_n02690373_1751.png
dino_v8,1,252,NaN,clock,truck,150,0252_ps_dnn_150_truck_10_n04467665_48953.png
dino_v8,1,253,NaN,knife,oven,0,0253_ps_dnn_0_oven_10_n04111531_10077.png
dino_v8,1,254,NaN,clock,dog,150,0254_ps_dnn_150_dog_10_n02097209_821.png
dino_v8,1,255,NaN,bicycle,truck,0,0255_ps_dnn_0_truck_10_n04467665_13231.png
dino_v8,1,256,NaN,knife,dog,90,0256_ps_dnn_90_dog_10_n02107908_3447.png
dino_v8,1,257,NaN,clock,elephant,180,0257_ps_dnn_180_elephant_10_n02504013_5021.png
dino_v8,1,258,NaN,truck,knife,90,0258_ps_dnn_90_knife_10_n03041632_12242.png
dino_v8,1,259,NaN,clock,keyboard,150,0259_ps_dnn_150_keyboard_10_n03085013_22821.png
dino_v8,1,260,NaN,clock,cat,150,0260_ps_dnn_150_cat_10_n02124075_2080.png
dino_v8,1,261,NaN,clock,bicycle,180,0261_ps_dnn_180_bicycle_10_n02835271_7296.png
dino_v8,1,262,NaN,clock,boat,180,0262_ps_dnn_180_boat_10_n04612504_4302.png
dino_v8,1,263,NaN,bottle,clock,150,0263_ps_dnn_150_clock_10_n04548280_4524.png
dino_v8,1,264,NaN,clock,knife,150,0264_ps_dnn_150_knife_10_n03041632_19275.png
dino_v8,1,265,NaN,knife,bird,30,0265_ps_dnn_30_bird_10_n01796340_2973.png
dino_v8,1,266,NaN,clock,chair,90,0266_ps_dnn_90_chair_10_n02791124_15407.png
dino_v8,1,267,NaN,knife,dog,30,0267_ps_dnn_30_dog_10_n02109525_72594.png
dino_v8,1,268,NaN,clock,knife,150,0268_ps_dnn_150_knife_10_n03041632_19614.png
dino_v8,1,269,NaN,keyboard,keyboard,30,0269_ps_dnn_30_keyboard_10_n04505470_5111.png
dino_v8,1,270,NaN,knife,bicycle,30,0270_ps_dnn_30_bicycle_10_n03792782_8374.png
dino_v8,1,271,NaN,truck,boat,120,0271_ps_dnn_120_boat_10_n04612504_2024.png
dino_v8,1,272,NaN,knife,bicycle,30,0272_ps_dnn_30_bicycle_10_n02835271_9860.png
dino_v8,1,273,NaN,knife,bear,60,0273_ps_dnn_60_bear_10_n02134084_21921.png
dino_v8,1,274,NaN,clock,bear,90,0274_ps_dnn_90_bear_10_n02134418_836.png
dino_v8,1,275,NaN,elephant,chair,60,0275_ps_dnn_60_chair_10_n04429376_6141.png
dino_v8,1,276,NaN,bicycle,truck,30,0276_ps_dnn_30_truck_10_n04467665_6523.png
dino_v8,1,277,NaN,cat,chair,90,0277_ps_dnn_90_chair_10_n04429376_41755.png
dino_v8,1,278,NaN,clock,bottle,180,0278_ps_dnn_180_bottle_10_n04579145_3302.png
dino_v8,1,279,NaN,knife,cat,0,0279_ps_dnn_0_cat_10_n02123045_12297.png
dino_v8,1,280,NaN,clock,clock,60,0280_ps_dnn_60_clock_10_n04548280_5734.png
dino_v8,1,281,NaN,truck,elephant,90,0281_ps_dnn_90_elephant_10_n02504013_3640.png
dino_v8,1,282,NaN,keyboard,car,0,0282_ps_dnn_0_car_10_n03100240_2108.png
dino_v8,1,283,NaN,keyboard,car,90,0283_ps_dnn_90_car_10_n02814533_8499.png
dino_v8,1,284,NaN,car,knife,180,0284_ps_dnn_180_knife_10_n03041632_9406.png
dino_v8,1,285,NaN,clock,clock,120,0285_ps_dnn_120_clock_10_n04548280_3968.png
dino_v8,1,286,NaN,clock,boat,120,0286_ps_dnn_120_boat_10_n04273569_20587.png
dino_v8,1,287,NaN,clock,truck,150,0287_ps_dnn_150_truck_10_n03796401_7261.png
dino_v8,1,288,NaN,knife,boat,90,0288_ps_dnn_90_boat_10_n04273569_18037.png
dino_v8,1,289,NaN,clock,bicycle,180,0289_ps_dnn_180_bicycle_10_n02835271_4789.png
dino_v8,1,290,NaN,clock,chair,90,0290_ps_dnn_90_chair_10_n04099969_18380.png
dino_v8,1,291,NaN,clock,dog,120,0291_ps_dnn_120_dog_10_n02100583_13688.png
dino_v8,1,292,NaN,clock,boat,180,0292_ps_dnn_180_boat_10_n03662601_8065.png
dino_v8,1,293,NaN,elephant,boat,0,0293_ps_dnn_0_boat_10_n02951358_15218.png
dino_v8,1,294,NaN,boat,knife,180,0294_ps_dnn_180_knife_10_n03041632_24277.png
dino_v8,1,295,NaN,knife,bird,90,0295_ps_dnn_90_bird_10_n01601694_2723.png
dino_v8,1,296,NaN,truck,keyboard,120,0296_ps_dnn_120_keyboard_10_n04505470_4724.png
dino_v8,1,297,NaN,clock,bear,150,0297_ps_dnn_150_bear_10_n02134418_1642.png
dino_v8,1,298,NaN,bird,truck,60,0298_ps_dnn_60_truck_10_n03417042_13055.png
dino_v8,1,299,NaN,clock,bear,120,0299_ps_dnn_120_bear_10_n02133161_1629.png
dino_v8,1,300,NaN,clock,bottle,180,0300_ps_dnn_180_bottle_10_n04579145_1856.png
dino_v8,1,301,NaN,clock,chair,150,0301_ps_dnn_150_chair_10_n04099969_3768.png
dino_v8,1,302,NaN,clock,bird,120,0302_ps_dnn_120_bird_10_n02009229_5172.png
dino_v8,1,303,NaN,knife,airplane,90,0303_ps_dnn_90_airplane_10_n02690373_21731.png
dino_v8,1,304,NaN,clock,bear,30,0304_ps_dnn_30_bear_10_n02133161_959.png
dino_v8,1,305,NaN,knife,chair,0,0305_ps_dnn_0_chair_10_n04099969_1028.png
dino_v8,1,306,NaN,chair,knife,180,0306_ps_dnn_180_knife_10_n03041632_44212.png
dino_v8,1,307,NaN,truck,oven,120,0307_ps_dnn_120_oven_10_n04111531_9344.png
dino_v8,1,308,NaN,clock,car,180,0308_ps_dnn_180_car_10_n04285008_9080.png
dino_v8,1,309,NaN,knife,car,60,0309_ps_dnn_60_car_10_n03100240_17349.png
dino_v8,1,310,NaN,knife,dog,30,0310_ps_dnn_30_dog_10_n02110958_1335.png
dino_v8,1,311,NaN,clock,elephant,150,0311_ps_dnn_150_elephant_10_n02504013_7305.png
dino_v8,1,312,NaN,truck,dog,90,0312_ps_dnn_90_dog_10_n02091244_2626.png
dino_v8,1,313,NaN,clock,bird,150,0313_ps_dnn_150_bird_10_n01828970_22.png
dino_v8,1,314,NaN,bicycle,cat,60,0314_ps_dnn_60_cat_10_n02124075_13587.png
dino_v8,1,315,NaN,clock,knife,120,0315_ps_dnn_120_knife_10_n03041632_13612.png
dino_v8,1,316,NaN,truck,bicycle,90,0316_ps_dnn_90_bicycle_10_n02835271_2581.png
dino_v8,1,317,NaN,bicycle,clock,30,0317_ps_dnn_30_clock_10_n03196217_2536.png
dino_v8,1,318,NaN,knife,cat,90,0318_ps_dnn_90_cat_10_n02124075_15001.png
dino_v8,1,319,NaN,clock,bear,60,0319_ps_dnn_60_bear_10_n02133161_6152.png
dino_v8,1,320,NaN,keyboard,chair,30,0320_ps_dnn_30_chair_10_n04099969_8401.png
dino_v8,1,321,NaN,boat,oven,150,0321_ps_dnn_150_oven_10_n04111531_7923.png
dino_v8,1,322,NaN,clock,cat,120,0322_ps_dnn_120_cat_10_n02123159_5706.png
dino_v8,1,323,NaN,knife,airplane,30,0323_ps_dnn_30_airplane_10_n02690373_13324.png
dino_v8,1,324,NaN,chair,airplane,150,0324_ps_dnn_150_airplane_10_n02690373_4452.png
dino_v8,1,325,NaN,clock,bird,90,0325_ps_dnn_90_bird_10_n02056570_10881.png
dino_v8,1,326,NaN,clock,airplane,90,0326_ps_dnn_90_airplane_10_n02690373_19133.png
dino_v8,1,327,NaN,truck,bottle,0,0327_ps_dnn_0_bottle_10_n03937543_4850.png
dino_v8,1,328,NaN,clock,keyboard,150,0328_ps_dnn_150_keyboard_10_n04505470_2709.png
dino_v8,1,329,NaN,boat,keyboard,90,0329_ps_dnn_90_keyboard_10_n03085013_1797.png
dino_v8,1,330,NaN,airplane,oven,30,0330_ps_dnn_30_oven_10_n04111531_3902.png
dino_v8,1,331,NaN,clock,car,180,0331_ps_dnn_180_car_10_n03100240_6750.png
dino_v8,1,332,NaN,knife,chair,0,0332_ps_dnn_0_chair_10_n03376595_16306.png
dino_v8,1,333,NaN,truck,boat,60,0333_ps_dnn_60_boat_10_n02951358_13017.png
dino_v8,1,334,NaN,clock,clock,90,0334_ps_dnn_90_clock_10_n03196217_5827.png
dino_v8,1,335,NaN,bicycle,bottle,0,0335_ps_dnn_0_bottle_10_n02823428_685.png
dino_v8,1,336,NaN,oven,airplane,120,0336_ps_dnn_120_airplane_10_n02690373_2092.png
dino_v8,1,337,NaN,bottle,bottle,180,0337_ps_dnn_180_bottle_10_n04557648_3637.png
dino_v8,1,338,NaN,car,bird,90,0338_ps_dnn_90_bird_10_n01819313_5521.png
dino_v8,1,339,NaN,chair,dog,90,0339_ps_dnn_90_dog_10_n02100583_24297.png
dino_v8,1,340,NaN,knife,bird,60,0340_ps_dnn_60_bird_10_n02018207_12233.png
dino_v8,1,341,NaN,clock,bird,180,0341_ps_dnn_180_bird_10_n02013706_3032.png
dino_v8,1,342,NaN,bird,oven,60,0342_ps_dnn_60_oven_10_n04111531_9939.png
dino_v8,1,343,NaN,clock,bird,180,0343_ps_dnn_180_bird_10_n02011460_7629.png
dino_v8,1,344,NaN,bird,oven,60,0344_ps_dnn_60_oven_10_n04111531_13542.png
dino_v8,1,345,NaN,clock,bear,90,0345_ps_dnn_90_bear_10_n02134418_270.png
dino_v8,1,346,NaN,clock,bicycle,90,0346_ps_dnn_90_bicycle_10_n03792782_12561.png
dino_v8,1,347,NaN,bear,elephant,120,0347_ps_dnn_120_elephant_10_n02504458_9213.png
dino_v8,1,348,NaN,keyboard,chair,90,0348_ps_dnn_90_chair_10_n03376595_4155.png
dino_v8,1,349,NaN,clock,truck,120,0349_ps_dnn_120_truck_10_n04467665_69970.png
dino_v8,1,350,NaN,clock,bird,120,0350_ps_dnn_120_bird_10_n02002556_2350.png
dino_v8,1,351,NaN,knife,bear,0,0351_ps_dnn_0_bear_10_n02133161_355.png
dino_v8,1,352,NaN,clock,airplane,90,0352_ps_dnn_90_airplane_10_n02690373_3065.png
dino_v8,1,353,NaN,bicycle,truck,60,0353_ps_dnn_60_truck_10_n03417042_13289.png
dino_v8,1,354,NaN,chair,oven,0,0354_ps_dnn_0_oven_10_n04111531_21404.png
dino_v8,1,355,NaN,clock,bear,90,0355_ps_dnn_90_bear_10_n02132136_8358.png
dino_v8,1,356,NaN,clock,oven,90,0356_ps_dnn_90_oven_10_n04111531_274.png
dino_v8,1,357,NaN,truck,chair,120,0357_ps_dnn_120_chair_10_n02791124_2773.png
dino_v8,1,358,NaN,clock,knife,120,0358_ps_dnn_120_knife_10_n03041632_102828.png
dino_v8,1,359,NaN,clock,boat,150,0359_ps_dnn_150_boat_10_n02951358_30995.png
dino_v8,1,360,NaN,clock,bicycle,150,0360_ps_dnn_150_bicycle_10_n03792782_4544.png
dino_v8,1,361,NaN,chair,airplane,120,0361_ps_dnn_120_airplane_10_n02690373_8446.png
dino_v8,1,362,NaN,keyboard,bottle,30,0362_ps_dnn_30_bottle_10_n04557648_900.png
dino_v8,1,363,NaN,chair,airplane,150,0363_ps_dnn_150_airplane_10_n02690373_3407.png
dino_v8,1,364,NaN,truck,bottle,120,0364_ps_dnn_120_bottle_10_n03983396_8143.png
dino_v8,1,365,NaN,keyboard,car,0,0365_ps_dnn_0_car_10_n03100240_9610.png
dino_v8,1,366,NaN,clock,cat,120,0366_ps_dnn_120_cat_10_n02123159_1108.png
dino_v8,1,367,NaN,knife,clock,0,0367_ps_dnn_0_clock_10_n04548280_2170.png
dino_v8,1,368,NaN,keyboard,keyboard,120,0368_ps_dnn_120_keyboard_10_n04505470_4385.png
dino_v8,1,369,NaN,clock,airplane,120,0369_ps_dnn_120_airplane_10_n02690373_18383.png
dino_v8,1,370,NaN,boat,truck,90,0370_ps_dnn_90_truck_10_n03417042_10243.png
dino_v8,1,371,NaN,bicycle,cat,30,0371_ps_dnn_30_cat_10_n02123045_11826.png
dino_v8,1,372,NaN,knife,bird,0,0372_ps_dnn_0_bird_10_n01817953_2257.png
dino_v8,1,373,NaN,knife,boat,0,0373_ps_dnn_0_boat_10_n04612504_18442.png
dino_v8,1,374,NaN,clock,airplane,180,0374_ps_dnn_180_airplane_10_n02690373_2874.png
dino_v8,1,375,NaN,knife,bicycle,0,0375_ps_dnn_0_bicycle_10_n02835271_4963.png
dino_v8,1,376,NaN,truck,boat,180,0376_ps_dnn_180_boat_10_n04273569_568.png
dino_v8,1,377,NaN,clock,elephant,90,0377_ps_dnn_90_elephant_10_n02504013_2233.png
dino_v8,1,378,NaN,bicycle,bottle,60,0378_ps_dnn_60_bottle_10_n02823428_889.png
dino_v8,1,379,NaN,knife,car,90,0379_ps_dnn_90_car_10_n04285008_3096.png
dino_v8,1,380,NaN,chair,airplane,120,0380_ps_dnn_120_airplane_10_n02690373_13206.png
dino_v8,1,381,NaN,airplane,keyboard,90,0381_ps_dnn_90_keyboard_10_n03085013_25443.png
dino_v8,1,382,NaN,bicycle,truck,30,0382_ps_dnn_30_truck_10_n04467665_20622.png
dino_v8,1,383,NaN,knife,bicycle,60,0383_ps_dnn_60_bicycle_10_n02835271_24639.png
dino_v8,1,384,NaN,bear,knife,30,0384_ps_dnn_30_knife_10_n03041632_25603.png
dino_v8,1,385,NaN,chair,boat,60,0385_ps_dnn_60_boat_10_n04273569_4978.png
dino_v8,1,386,NaN,knife,car,60,0386_ps_dnn_60_car_10_n02814533_46401.png
dino_v8,1,387,NaN,clock,bird,120,0387_ps_dnn_120_bird_10_n01798484_12863.png
dino_v8,1,388,NaN,chair,boat,120,0388_ps_dnn_120_boat_10_n03662601_7885.png
dino_v8,1,389,NaN,knife,chair,0,0389_ps_dnn_0_chair_10_n03376595_3062.png
dino_v8,1,390,NaN,knife,airplane,90,0390_ps_dnn_90_airplane_10_n02690373_19118.png
dino_v8,1,391,NaN,clock,cat,180,0391_ps_dnn_180_cat_10_n02123597_3944.png
dino_v8,1,392,NaN,truck,keyboard,150,0392_ps_dnn_150_keyboard_10_n04505470_2113.png
dino_v8,1,393,NaN,knife,bird,30,0393_ps_dnn_30_bird_10_n02056570_4808.png
dino_v8,1,394,NaN,clock,bear,180,0394_ps_dnn_180_bear_10_n02133161_2316.png
dino_v8,1,395,NaN,knife,dog,0,0395_ps_dnn_0_dog_10_n02106662_15515.png
dino_v8,1,396,NaN,bicycle,airplane,0,0396_ps_dnn_0_airplane_10_n02690373_3899.png
dino_v8,1,397,NaN,keyboard,boat,0,0397_ps_dnn_0_boat_10_n04273569_2449.png
dino_v8,1,398,NaN,clock,bird,120,0398_ps_dnn_120_bird_10_n02007558_7614.png
dino_v8,1,399,NaN,cat,keyboard,90,0399_ps_dnn_90_keyboard_10_n03085013_4914.png
dino_v8,1,400,NaN,clock,oven,150,0400_ps_dnn_150_oven_10_n04111531_15296.png
dino_v8,1,401,NaN,bicycle,chair,60,0401_ps_dnn_60_chair_10_n04099969_246.png
dino_v8,1,402,NaN,clock,truck,180,0402_ps_dnn_180_truck_10_n04467665_670.png
dino_v8,1,403,NaN,bird,keyboard,90,0403_ps_dnn_90_keyboard_10_n03085013_24192.png
dino_v8,1,404,NaN,clock,bicycle,150,0404_ps_dnn_150_bicycle_10_n03792782_378.png
dino_v8,1,405,NaN,clock,bird,180,0405_ps_dnn_180_bird_10_n02018207_14738.png
dino_v8,1,406,NaN,knife,bird,0,0406_ps_dnn_0_bird_10_n01530575_5222.png
dino_v8,1,407,NaN,knife,bear,30,0407_ps_dnn_30_bear_10_n02134084_10766.png
dino_v8,1,408,NaN,knife,bird,30,0408_ps_dnn_30_bird_10_n02007558_4009.png
dino_v8,1,409,NaN,clock,chair,120,0409_ps_dnn_120_chair_10_n04099969_7545.png
dino_v8,1,410,NaN,clock,clock,90,0410_ps_dnn_90_clock_10_n03196217_127.png
dino_v8,1,411,NaN,clock,bottle,150,0411_ps_dnn_150_bottle_10_n04560804_26326.png
dino_v8,1,412,NaN,knife,keyboard,30,0412_ps_dnn_30_keyboard_10_n03085013_25066.png
dino_v8,1,413,NaN,knife,cat,30,0413_ps_dnn_30_cat_10_n02124075_11776.png
dino_v8,1,414,NaN,clock,keyboard,120,0414_ps_dnn_120_keyboard_10_n04505470_2909.png
dino_v8,1,415,NaN,car,keyboard,30,0415_ps_dnn_30_keyboard_10_n04505470_494.png
dino_v8,1,416,NaN,clock,bear,120,0416_ps_dnn_120_bear_10_n02133161_2270.png
dino_v8,1,417,NaN,clock,chair,120,0417_ps_dnn_120_chair_10_n04099969_13901.png
dino_v8,1,418,NaN,keyboard,car,120,0418_ps_dnn_120_car_10_n02814533_2923.png
dino_v8,1,419,NaN,clock,bottle,90,0419_ps_dnn_90_bottle_10_n03983396_12757.png
dino_v8,1,420,NaN,clock,knife,30,0420_ps_dnn_30_knife_10_n03041632_15444.png
dino_v8,1,421,NaN,clock,bicycle,180,0421_ps_dnn_180_bicycle_10_n02835271_5554.png
dino_v8,1,422,NaN,truck,knife,150,0422_ps_dnn_150_knife_10_n03041632_37618.png
dino_v8,1,423,NaN,car,chair,60,0423_ps_dnn_60_chair_10_n03376595_3910.png
dino_v8,1,424,NaN,keyboard,dog,30,0424_ps_dnn_30_dog_10_n02086646_7362.png
dino_v8,1,425,NaN,boat,dog,60,0425_ps_dnn_60_dog_10_n02113712_5829.png
dino_v8,1,426,NaN,clock,truck,180,0426_ps_dnn_180_truck_10_n03417042_1149.png
dino_v8,1,427,NaN,bicycle,bird,60,0427_ps_dnn_60_bird_10_n02002724_3345.png
dino_v8,1,428,NaN,clock,bird,150,0428_ps_dnn_150_bird_10_n02002556_2917.png
dino_v8,1,429,NaN,clock,bottle,180,0429_ps_dnn_180_bottle_10_n04560804_3959.png
dino_v8,1,430,NaN,knife,airplane,30,0430_ps_dnn_30_airplane_10_n02690373_3639.png
dino_v8,1,431,NaN,clock,bottle,120,0431_ps_dnn_120_bottle_10_n02823428_14453.png
dino_v8,1,432,NaN,elephant,bottle,0,0432_ps_dnn_0_bottle_10_n03937543_3253.png
dino_v8,1,433,NaN,keyboard,elephant,30,0433_ps_dnn_30_elephant_10_n02504013_7010.png
dino_v8,1,434,NaN,clock,car,150,0434_ps_dnn_150_car_10_n04285008_8813.png
dino_v8,1,435,NaN,chair,bear,180,0435_ps_dnn_180_bear_10_n02132136_110.png
dino_v8,1,436,NaN,bear,bear,60,0436_ps_dnn_60_bear_10_n02133161_4294.png
dino_v8,1,437,NaN,knife,car,0,0437_ps_dnn_0_car_10_n02814533_95144.png
dino_v8,1,438,NaN,clock,oven,120,0438_ps_dnn_120_oven_10_n04111531_1220.png
dino_v8,1,439,NaN,cat,dog,60,0439_ps_dnn_60_dog_10_n02086240_7247.png
dino_v8,1,440,NaN,boat,airplane,0,0440_ps_dnn_0_airplane_10_n02690373_4144.png
dino_v8,1,441,NaN,bicycle,oven,120,0441_ps_dnn_120_oven_10_n04111531_986.png
dino_v8,1,442,NaN,knife,elephant,30,0442_ps_dnn_30_elephant_10_n02504458_6336.png
dino_v8,1,443,NaN,clock,knife,150,0443_ps_dnn_150_knife_10_n03041632_14132.png
dino_v8,1,444,NaN,truck,cat,150,0444_ps_dnn_150_cat_10_n02123159_799.png
dino_v8,1,445,NaN,clock,bird,90,0445_ps_dnn_90_bird_10_n02006656_7456.png
dino_v8,1,446,NaN,clock,cat,90,0446_ps_dnn_90_cat_10_n02123045_8722.png
dino_v8,1,447,NaN,clock,chair,120,0447_ps_dnn_120_chair_10_n03376595_8302.png
dino_v8,1,448,NaN,clock,bottle,30,0448_ps_dnn_30_bottle_10_n04560804_5769.png
dino_v8,1,449,NaN,clock,car,90,0449_ps_dnn_90_car_10_n04285008_203.png
dino_v8,1,450,NaN,clock,airplane,180,0450_ps_dnn_180_airplane_10_n02690373_9959.png
dino_v8,1,451,NaN,cat,car,0,0451_ps_dnn_0_car_10_n04285008_1867.png
dino_v8,1,452,NaN,clock,airplane,150,0452_ps_dnn_150_airplane_10_n02690373_16250.png
dino_v8,1,453,NaN,chair,elephant,30,0453_ps_dnn_30_elephant_10_n02504458_4696.png
dino_v8,1,454,NaN,bicycle,car,60,0454_ps_dnn_60_car_10_n04285008_10755.png
dino_v8,1,455,NaN,truck,boat,150,0455_ps_dnn_150_boat_10_n02951358_11586.png
dino_v8,1,456,NaN,clock,bottle,60,0456_ps_dnn_60_bottle_10_n02823428_4108.png
dino_v8,1,457,NaN,chair,car,180,0457_ps_dnn_180_car_10_n04285008_11770.png
dino_v8,1,458,NaN,knife,boat,90,0458_ps_dnn_90_boat_10_n04273569_32786.png
dino_v8,1,459,NaN,airplane,bear,30,0459_ps_dnn_30_bear_10_n02132136_21267.png
dino_v8,1,460,NaN,clock,car,90,0460_ps_dnn_90_car_10_n03100240_24001.png
dino_v8,1,461,NaN,clock,bottle,150,0461_ps_dnn_150_bottle_10_n03937543_71.png
dino_v8,1,462,NaN,clock,chair,0,0462_ps_dnn_0_chair_10_n02791124_16127.png
dino_v8,1,463,NaN,bicycle,bird,90,0463_ps_dnn_90_bird_10_n02002724_12183.png
dino_v8,1,464,NaN,knife,dog,30,0464_ps_dnn_30_dog_10_n02108915_1165.png
dino_v8,1,465,NaN,clock,dog,180,0465_ps_dnn_180_dog_10_n02099429_4843.png
dino_v8,1,466,NaN,bicycle,boat,60,0466_ps_dnn_60_boat_10_n03344393_3499.png
dino_v8,1,467,NaN,bicycle,truck,120,0467_ps_dnn_120_truck_10_n03417042_20962.png
dino_v8,1,468,NaN,bicycle,dog,30,0468_ps_dnn_30_dog_10_n02097047_4189.png
dino_v8,1,469,NaN,knife,bicycle,60,0469_ps_dnn_60_bicycle_10_n03792782_24591.png
dino_v8,1,470,NaN,knife,airplane,60,0470_ps_dnn_60_airplane_10_n02690373_243.png
dino_v8,1,471,NaN,bicycle,boat,90,0471_ps_dnn_90_boat_10_n03344393_3072.png
dino_v8,1,472,NaN,bird,clock,120,0472_ps_dnn_120_clock_10_n02708093_118.png
dino_v8,1,473,NaN,knife,bird,30,0473_ps_dnn_30_bird_10_n01843065_2664.png
dino_v8,1,474,NaN,clock,airplane,150,0474_ps_dnn_150_airplane_10_n02690373_19353.png
dino_v8,1,475,NaN,clock,dog,120,0475_ps_dnn_120_dog_10_n02099849_4250.png
dino_v8,1,476,NaN,truck,truck,90,0476_ps_dnn_90_truck_10_n04467665_29260.png
dino_v8,1,477,NaN,knife,elephant,30,0477_ps_dnn_30_elephant_10_n02504013_8308.png
dino_v8,1,478,NaN,clock,boat,150,0478_ps_dnn_150_boat_10_n03344393_6854.png
dino_v8,1,479,NaN,clock,truck,180,0479_ps_dnn_180_truck_10_n04467665_25129.png
dino_v8,1,480,NaN,knife,bird,30,0480_ps_dnn_30_bird_10_n01824575_6272.png
dino_v8,1,481,NaN,clock,chair,180,0481_ps_dnn_180_chair_10_n04099969_19484.png
dino_v8,1,482,NaN,clock,oven,120,0482_ps_dnn_120_oven_10_n04111531_5888.png
dino_v8,1,483,NaN,car,chair,60,0483_ps_dnn_60_chair_10_n04099969_16266.png
dino_v8,1,484,NaN,clock,truck,150,0484_ps_dnn_150_truck_10_n04467665_68754.png
dino_v8,1,485,NaN,clock,cat,180,0485_ps_dnn_180_cat_10_n02123394_7859.png
dino_v8,1,486,NaN,clock,car,90,0486_ps_dnn_90_car_10_n04285008_17056.png
dino_v8,1,487,NaN,clock,cat,120,0487_ps_dnn_120_cat_10_n02123045_12046.png
dino_v8,1,488,NaN,clock,elephant,180,0488_ps_dnn_180_elephant_10_n02504013_3029.png
dino_v8,1,489,NaN,clock,boat,120,0489_ps_dnn_120_boat_10_n03662601_7271.png
dino_v8,1,490,NaN,clock,bear,30,0490_ps_dnn_30_bear_10_n02133161_6861.png
dino_v8,1,491,NaN,clock,chair,30,0491_ps_dnn_30_chair_10_n02791124_4192.png
dino_v8,1,492,NaN,bear,boat,60,0492_ps_dnn_60_boat_10_n04273569_1457.png
dino_v8,1,493,NaN,knife,clock,90,0493_ps_dnn_90_clock_10_n04548280_764.png
dino_v8,1,494,NaN,clock,bicycle,120,0494_ps_dnn_120_bicycle_10_n02835271_12346.png
dino_v8,1,495,NaN,clock,bicycle,180,0495_ps_dnn_180_bicycle_10_n03792782_50673.png
dino_v8,1,496,NaN,clock,truck,120,0496_ps_dnn_120_truck_10_n03796401_9198.png
dino_v8,1,497,NaN,knife,airplane,0,0497_ps_dnn_0_airplane_10_n02690373_4110.png
dino_v8,1,498,NaN,bicycle,dog,60,0498_ps_dnn_60_dog_10_n02107683_2484.png
dino_v8,1,499,NaN,cat,chair,60,0499_ps_dnn_60_chair_10_n02791124_13057.png
dino_v8,1,500,NaN,clock,bear,120,0500_ps_dnn_120_bear_10_n02134418_14451.png
dino_v8,1,501,NaN,cat,bird,60,0501_ps_dnn_60_bird_10_n01843383_10059.png
dino_v8,1,502,NaN,knife,bicycle,0,0502_ps_dnn_0_bicycle_10_n03792782_11824.png
dino_v8,1,503,NaN,knife,bird,30,0503_ps_dnn_30_bird_10_n01532829_2492.png
dino_v8,1,504,NaN,knife,bottle,0,0504_ps_dnn_0_bottle_10_n04579145_5621.png
dino_v8,1,505,NaN,truck,truck,150,0505_ps_dnn_150_truck_10_n03417042_6250.png
dino_v8,1,506,NaN,knife,dog,90,0506_ps_dnn_90_dog_10_n02108551_14704.png
dino_v8,1,507,NaN,knife,boat,30,0507_ps_dnn_30_boat_10_n04612504_8407.png
dino_v8,1,508,NaN,truck,car,120,0508_ps_dnn_120_car_10_n03100240_14794.png
dino_v8,1,509,NaN,bicycle,dog,60,0509_ps_dnn_60_dog_10_n02097658_759.png
dino_v8,1,510,NaN,clock,oven,90,0510_ps_dnn_90_oven_10_n04111531_5965.png
dino_v8,1,511,NaN,clock,elephant,180,0511_ps_dnn_180_elephant_10_n02504013_6984.png
dino_v8,1,512,NaN,clock,oven,180,0512_ps_dnn_180_oven_10_n04111531_6695.png
dino_v8,1,513,NaN,knife,bird,60,0513_ps_dnn_60_bird_10_n02037110_4572.png
dino_v8,1,514,NaN,airplane,truck,30,0514_ps_dnn_30_truck_10_n03796401_11628.png
dino_v8,1,515,NaN,clock,chair,180,0515_ps_dnn_180_chair_10_n02791124_1258.png
dino_v8,1,516,NaN,bear,knife,0,0516_ps_dnn_0_knife_10_n03041632_62810.png
dino_v8,1,517,NaN,clock,bird,90,0517_ps_dnn_90_bird_10_n01819313_2770.png
dino_v8,1,518,NaN,knife,bicycle,60,0518_ps_dnn_60_bicycle_10_n02835271_25519.png
dino_v8,1,519,NaN,bicycle,boat,0,0519_ps_dnn_0_boat_10_n03662601_23248.png
dino_v8,1,520,NaN,clock,elephant,120,0520_ps_dnn_120_elephant_10_n02504013_1784.png
dino_v8,1,521,NaN,clock,cat,150,0521_ps_dnn_150_cat_10_n02123394_270.png
dino_v8,1,522,NaN,chair,dog,30,0522_ps_dnn_30_dog_10_n02093647_1022.png
dino_v8,1,523,NaN,bicycle,boat,30,0523_ps_dnn_30_boat_10_n03662601_4881.png
dino_v8,1,524,NaN,bicycle,knife,60,0524_ps_dnn_60_knife_10_n03041632_8321.png
dino_v8,1,525,NaN,truck,car,120,0525_ps_dnn_120_car_10_n02814533_60400.png
dino_v8,1,526,NaN,clock,cat,150,0526_ps_dnn_150_cat_10_n02123597_3280.png
dino_v8,1,527,NaN,clock,dog,150,0527_ps_dnn_150_dog_10_n02110063_3399.png
dino_v8,1,528,NaN,chair,bear,0,0528_ps_dnn_0_bear_10_n02132136_3109.png
dino_v8,1,529,NaN,knife,bear,0,0529_ps_dnn_0_bear_10_n02134084_16632.png
dino_v8,1,530,NaN,truck,bottle,150,0530_ps_dnn_150_bottle_10_n04591713_5851.png
dino_v8,1,531,NaN,cat,knife,0,0531_ps_dnn_0_knife_10_n03041632_29961.png
dino_v8,1,532,NaN,knife,knife,30,0532_ps_dnn_30_knife_10_n03041632_10140.png
dino_v8,1,533,NaN,chair,airplane,180,0533_ps_dnn_180_airplane_10_n02690373_8765.png
dino_v8,1,534,NaN,clock,knife,120,0534_ps_dnn_120_knife_10_n03041632_16826.png
dino_v8,1,535,NaN,knife,chair,30,0535_ps_dnn_30_chair_10_n04429376_21089.png
dino_v8,1,536,NaN,knife,bear,60,0536_ps_dnn_60_bear_10_n02134084_15118.png
dino_v8,1,537,NaN,clock,car,120,0537_ps_dnn_120_car_10_n04285008_3884.png
dino_v8,1,538,NaN,truck,boat,150,0538_ps_dnn_150_boat_10_n04273569_1576.png
dino_v8,1,539,NaN,clock,bicycle,120,0539_ps_dnn_120_bicycle_10_n03792782_4600.png
dino_v8,1,540,NaN,knife,clock,30,0540_ps_dnn_30_clock_10_n03196217_4537.png
dino_v8,1,541,NaN,clock,airplane,60,0541_ps_dnn_60_airplane_10_n02690373_10203.png
dino_v8,1,542,NaN,knife,truck,30,0542_ps_dnn_30_truck_10_n04467665_48875.png
dino_v8,1,543,NaN,keyboard,car,60,0543_ps_dnn_60_car_10_n02814533_38071.png
dino_v8,1,544,NaN,clock,bear,90,0544_ps_dnn_90_bear_10_n02133161_160.png
dino_v8,1,545,NaN,boat,car,30,0545_ps_dnn_30_car_10_n02814533_40344.png
dino_v8,1,546,NaN,clock,oven,180,0546_ps_dnn_180_oven_10_n04111531_9026.png
dino_v8,1,547,NaN,chair,cat,0,0547_ps_dnn_0_cat_10_n02123597_13755.png
dino_v8,1,548,NaN,chair,car,150,0548_ps_dnn_150_car_10_n02814533_39485.png
dino_v8,1,549,NaN,clock,bottle,90,0549_ps_dnn_90_bottle_10_n03937543_4512.png
dino_v8,1,550,NaN,knife,cat,120,0550_ps_dnn_120_cat_10_n02124075_2402.png
dino_v8,1,551,NaN,knife,bird,0,0551_ps_dnn_0_bird_10_n02056570_9835.png
dino_v8,1,552,NaN,clock,clock,120,0552_ps_dnn_120_clock_10_n04548280_13247.png
dino_v8,1,553,NaN,bicycle,truck,60,0553_ps_dnn_60_truck_10_n03417042_173.png
dino_v8,1,554,NaN,truck,airplane,180,0554_ps_dnn_180_airplane_10_n02690373_1592.png
dino_v8,1,555,NaN,car,elephant,0,0555_ps_dnn_0_elephant_10_n02504013_1953.png
dino_v8,1,556,NaN,clock,elephant,150,0556_ps_dnn_150_elephant_10_n02504458_4348.png
dino_v8,1,557,NaN,clock,airplane,90,0557_ps_dnn_90_airplane_10_n02690373_1854.png
dino_v8,1,558,NaN,clock,cat,180,0558_ps_dnn_180_cat_10_n02124075_14363.png
dino_v8,1,559,NaN,clock,bottle,30,0559_ps_dnn_30_bottle_10_n03983396_3377.png
dino_v8,1,560,NaN,clock,clock,90,0560_ps_dnn_90_clock_10_n04548280_6743.png
dino_v8,1,561,NaN,clock,clock,30,0561_ps_dnn_30_clock_10_n03196217_8034.png
dino_v8,1,562,NaN,truck,dog,150,0562_ps_dnn_150_dog_10_n02088094_13992.png
dino_v8,1,563,NaN,cat,car,30,0563_ps_dnn_30_car_10_n03100240_6216.png
dino_v8,1,564,NaN,cat,oven,30,0564_ps_dnn_30_oven_10_n04111531_2831.png
dino_v8,1,565,NaN,knife,knife,0,0565_ps_dnn_0_knife_10_n03041632_927.png
dino_v8,1,566,NaN,bottle,knife,150,0566_ps_dnn_150_knife_10_n03041632_5427.png
dino_v8,1,567,NaN,clock,cat,180,0567_ps_dnn_180_cat_10_n02123045_8690.png
dino_v8,1,568,NaN,keyboard,clock,90,0568_ps_dnn_90_clock_10_n02708093_6696.png
dino_v8,1,569,NaN,bicycle,airplane,60,0569_ps_dnn_60_airplane_10_n02690373_7748.png
dino_v8,1,570,NaN,knife,airplane,0,0570_ps_dnn_0_airplane_10_n02690373_20011.png
dino_v8,1,571,NaN,clock,boat,150,0571_ps_dnn_150_boat_10_n02951358_16728.png
dino_v8,1,572,NaN,knife,truck,60,0572_ps_dnn_60_truck_10_n04467665_37833.png
dino_v8,1,573,NaN,car,oven,0,0573_ps_dnn_0_oven_10_n04111531_22886.png
dino_v8,1,574,NaN,keyboard,car,30,0574_ps_dnn_30_car_10_n04285008_5959.png
dino_v8,1,575,NaN,clock,boat,120,0575_ps_dnn_120_boat_10_n04273569_10840.png
dino_v8,1,576,NaN,clock,clock,180,0576_ps_dnn_180_clock_10_n02708093_1352.png
dino_v8,1,577,NaN,clock,oven,120,0577_ps_dnn_120_oven_10_n04111531_1004.png
dino_v8,1,578,NaN,clock,car,180,0578_ps_dnn_180_car_10_n03100240_4619.png
dino_v8,1,579,NaN,clock,oven,180,0579_ps_dnn_180_oven_10_n04111531_15367.png
dino_v8,1,580,NaN,bicycle,oven,30,0580_ps_dnn_30_oven_10_n04111531_6903.png
dino_v8,1,581,NaN,clock,oven,60,0581_ps_dnn_60_oven_10_n04111531_1662.png
dino_v8,1,582,NaN,knife,keyboard,0,0582_ps_dnn_0_keyboard_10_n04505470_1342.png
dino_v8,1,583,NaN,cat,boat,60,0583_ps_dnn_60_boat_10_n02951358_1911.png
dino_v8,1,584,NaN,airplane,bicycle,30,0584_ps_dnn_30_bicycle_10_n03792782_42927.png
dino_v8,1,585,NaN,clock,chair,180,0585_ps_dnn_180_chair_10_n02791124_3994.png
dino_v8,1,586,NaN,keyboard,dog,0,0586_ps_dnn_0_dog_10_n02101388_1383.png
dino_v8,1,587,NaN,elephant,bear,30,0587_ps_dnn_30_bear_10_n02132136_9367.png
dino_v8,1,588,NaN,clock,dog,150,0588_ps_dnn_150_dog_10_n02108915_7875.png
dino_v8,1,589,NaN,clock,chair,60,0589_ps_dnn_60_chair_10_n02791124_6237.png
dino_v8,1,590,NaN,clock,bird,60,0590_ps_dnn_60_bird_10_n01622779_13896.png
dino_v8,1,591,NaN,keyboard,boat,30,0591_ps_dnn_30_boat_10_n04273569_15583.png
dino_v8,1,592,NaN,clock,bottle,0,0592_ps_dnn_0_bottle_10_n03937543_3079.png
dino_v8,1,593,NaN,truck,dog,150,0593_ps_dnn_150_dog_10_n02110063_5687.png
dino_v8,1,594,NaN,knife,truck,30,0594_ps_dnn_30_truck_10_n03417042_6685.png
dino_v8,1,595,NaN,bottle,clock,0,0595_ps_dnn_0_clock_10_n02708093_340.png
dino_v8,1,596,NaN,chair,dog,0,0596_ps_dnn_0_dog_10_n02111129_5463.png
dino_v8,1,597,NaN,knife,bicycle,90,0597_ps_dnn_90_bicycle_10_n03792782_17503.png
dino_v8,1,598,NaN,clock,bear,60,0598_ps_dnn_60_bear_10_n02134084_9253.png
dino_v8,1,599,NaN,knife,car,30,0599_ps_dnn_30_car_10_n04285008_3688.png
dino_v8,1,600,NaN,truck,bird,150,0600_ps_dnn_150_bird_10_n01795545_17324.png
dino_v8,1,601,NaN,chair,boat,30,0601_ps_dnn_30_boat_10_n04273569_16064.png
dino_v8,1,602,NaN,clock,elephant,180,0602_ps_dnn_180_elephant_10_n02504458_4395.png
dino_v8,1,603,NaN,bicycle,oven,30,0603_ps_dnn_30_oven_10_n04111531_21855.png
dino_v8,1,604,NaN,chair,oven,30,0604_ps_dnn_30_oven_10_n04111531_11225.png
dino_v8,1,605,NaN,clock,oven,150,0605_ps_dnn_150_oven_10_n04111531_13486.png
dino_v8,1,606,NaN,clock,chair,0,0606_ps_dnn_0_chair_10_n02791124_1693.png
dino_v8,1,607,NaN,clock,chair,150,0607_ps_dnn_150_chair_10_n04099969_26462.png
dino_v8,1,608,NaN,boat,chair,120,0608_ps_dnn_120_chair_10_n04429376_16869.png
dino_v8,1,609,NaN,clock,bottle,0,0609_ps_dnn_0_bottle_10_n03983396_23471.png
dino_v8,1,610,NaN,knife,bear,0,0610_ps_dnn_0_bear_10_n02134084_5314.png
dino_v8,1,611,NaN,clock,elephant,180,0611_ps_dnn_180_elephant_10_n02504458_4564.png
dino_v8,1,612,NaN,knife,bear,0,0612_ps_dnn_0_bear_10_n02132136_6967.png
dino_v8,1,613,NaN,bicycle,cat,0,0613_ps_dnn_0_cat_10_n02123394_6517.png
dino_v8,1,614,NaN,truck,keyboard,150,0614_ps_dnn_150_keyboard_10_n04505470_1076.png
dino_v8,1,615,NaN,clock,knife,180,0615_ps_dnn_180_knife_10_n03041632_5916.png
dino_v8,1,616,NaN,keyboard,car,90,0616_ps_dnn_90_car_10_n03100240_4674.png
dino_v8,1,617,NaN,clock,bottle,90,0617_ps_dnn_90_bottle_10_n02823428_1602.png
dino_v8,1,618,NaN,bird,boat,90,0618_ps_dnn_90_boat_10_n04273569_27343.png
dino_v8,1,619,NaN,truck,bottle,120,0619_ps_dnn_120_bottle_10_n04560804_15162.png
dino_v8,1,620,NaN,clock,bottle,120,0620_ps_dnn_120_bottle_10_n03937543_24.png
dino_v8,1,621,NaN,clock,dog,180,0621_ps_dnn_180_dog_10_n02105162_9615.png
dino_v8,1,622,NaN,clock,bird,150,0622_ps_dnn_150_bird_10_n01582220_1150.png
dino_v8,1,623,NaN,truck,clock,180,0623_ps_dnn_180_clock_10_n04548280_4560.png
dino_v8,1,624,NaN,clock,bottle,150,0624_ps_dnn_150_bottle_10_n04560804_14605.png
dino_v8,1,625,NaN,knife,chair,0,0625_ps_dnn_0_chair_10_n03376595_262.png
dino_v8,1,626,NaN,truck,dog,180,0626_ps_dnn_180_dog_10_n02091032_6523.png
dino_v8,1,627,NaN,clock,cat,150,0627_ps_dnn_150_cat_10_n02123159_615.png
dino_v8,1,628,NaN,clock,bottle,180,0628_ps_dnn_180_bottle_10_n04579145_6049.png
dino_v8,1,629,NaN,knife,bottle,90,0629_ps_dnn_90_bottle_10_n02823428_4386.png
dino_v8,1,630,NaN,truck,car,150,0630_ps_dnn_150_car_10_n03100240_4594.png
dino_v8,1,631,NaN,knife,knife,120,0631_ps_dnn_120_knife_10_n03041632_51581.png
dino_v8,1,632,NaN,oven,keyboard,60,0632_ps_dnn_60_keyboard_10_n03085013_15836.png
dino_v8,1,633,NaN,clock,bicycle,180,0633_ps_dnn_180_bicycle_10_n03792782_34197.png
dino_v8,1,634,NaN,clock,bicycle,180,0634_ps_dnn_180_bicycle_10_n02835271_9314.png
dino_v8,1,635,NaN,truck,oven,150,0635_ps_dnn_150_oven_10_n04111531_5643.png
dino_v8,1,636,NaN,clock,cat,180,0636_ps_dnn_180_cat_10_n02123394_6362.png
dino_v8,1,637,NaN,cat,elephant,60,0637_ps_dnn_60_elephant_10_n02504458_3614.png
dino_v8,1,638,NaN,boat,chair,180,0638_ps_dnn_180_chair_10_n04099969_6691.png
dino_v8,1,639,NaN,clock,dog,60,0639_ps_dnn_60_dog_10_n02104365_1262.png
dino_v8,1,640,NaN,clock,chair,180,0640_ps_dnn_180_chair_10_n02791124_2611.png
dino_v8,1,641,NaN,knife,bird,90,0641_ps_dnn_90_bird_10_n02027492_211.png
dino_v8,1,642,NaN,clock,keyboard,180,0642_ps_dnn_180_keyboard_10_n03085013_15576.png
dino_v8,1,643,NaN,knife,cat,30,0643_ps_dnn_30_cat_10_n02123045_7255.png
dino_v8,1,644,NaN,knife,chair,60,0644_ps_dnn_60_chair_10_n04099969_16382.png
dino_v8,1,645,NaN,knife,bear,0,0645_ps_dnn_0_bear_10_n02134418_2324.png
dino_v8,1,646,NaN,clock,dog,150,0646_ps_dnn_150_dog_10_n02096585_271.png
dino_v8,1,647,NaN,truck,oven,150,0647_ps_dnn_150_oven_10_n04111531_4900.png
dino_v8,1,648,NaN,chair,clock,150,0648_ps_dnn_150_clock_10_n04548280_23221.png
dino_v8,1,649,NaN,cat,car,60,0649_ps_dnn_60_car_10_n03100240_7753.png
dino_v8,1,650,NaN,clock,bear,180,0650_ps_dnn_180_bear_10_n02134084_1503.png
dino_v8,1,651,NaN,truck,keyboard,90,0651_ps_dnn_90_keyboard_10_n04505470_986.png
dino_v8,1,652,NaN,clock,truck,180,0652_ps_dnn_180_truck_10_n04467665_23758.png
dino_v8,1,653,NaN,chair,chair,120,0653_ps_dnn_120_chair_10_n03376595_4362.png
dino_v8,1,654,NaN,clock,oven,180,0654_ps_dnn_180_oven_10_n04111531_6958.png
dino_v8,1,655,NaN,bear,keyboard,30,0655_ps_dnn_30_keyboard_10_n03085013_6166.png
dino_v8,1,656,NaN,clock,bicycle,120,0656_ps_dnn_120_bicycle_10_n03792782_20475.png
dino_v8,1,657,NaN,clock,cat,180,0657_ps_dnn_180_cat_10_n02123394_2350.png
dino_v8,1,658,NaN,chair,elephant,0,0658_ps_dnn_0_elephant_10_n02504458_4316.png
dino_v8,1,659,NaN,knife,clock,30,0659_ps_dnn_30_clock_10_n04548280_4390.png
dino_v8,1,660,NaN,keyboard,car,60,0660_ps_dnn_60_car_10_n03100240_17421.png
dino_v8,1,661,NaN,clock,keyboard,60,0661_ps_dnn_60_keyboard_10_n03085013_30073.png
dino_v8,1,662,NaN,truck,knife,90,0662_ps_dnn_90_knife_10_n03041632_89391.png
dino_v8,1,663,NaN,bicycle,dog,90,0663_ps_dnn_90_dog_10_n02100877_2341.png
dino_v8,1,664,NaN,clock,boat,180,0664_ps_dnn_180_boat_10_n03344393_7114.png
dino_v8,1,665,NaN,bear,knife,0,0665_ps_dnn_0_knife_10_n03041632_22051.png
dino_v8,1,666,NaN,knife,clock,90,0666_ps_dnn_90_clock_10_n02708093_6850.png
dino_v8,1,667,NaN,clock,knife,60,0667_ps_dnn_60_knife_10_n03041632_15299.png
dino_v8,1,668,NaN,bottle,keyboard,60,0668_ps_dnn_60_keyboard_10_n03085013_21490.png
dino_v8,1,669,NaN,knife,knife,60,0669_ps_dnn_60_knife_10_n03041632_105081.png
dino_v8,1,670,NaN,knife,elephant,0,0670_ps_dnn_0_elephant_10_n02504013_20805.png
dino_v8,1,671,NaN,clock,boat,30,0671_ps_dnn_30_boat_10_n02951358_10151.png
dino_v8,1,672,NaN,clock,oven,90,0672_ps_dnn_90_oven_10_n04111531_4944.png
dino_v8,1,673,NaN,boat,bottle,180,0673_ps_dnn_180_bottle_10_n04591713_644.png
dino_v8,1,674,NaN,clock,dog,60,0674_ps_dnn_60_dog_10_n02090721_1105.png
dino_v8,1,675,NaN,clock,keyboard,60,0675_ps_dnn_60_keyboard_10_n04505470_5880.png
dino_v8,1,676,NaN,truck,airplane,150,0676_ps_dnn_150_airplane_10_n02690373_3589.png
dino_v8,1,677,NaN,clock,bird,120,0677_ps_dnn_120_bird_10_n01855672_3952.png
dino_v8,1,678,NaN,bicycle,truck,60,0678_ps_dnn_60_truck_10_n03796401_8037.png
dino_v8,1,679,NaN,elephant,clock,0,0679_ps_dnn_0_clock_10_n03196217_5493.png
dino_v8,1,680,NaN,clock,knife,30,0680_ps_dnn_30_knife_10_n03041632_32208.png
dino_v8,1,681,NaN,clock,bicycle,90,0681_ps_dnn_90_bicycle_10_n03792782_5494.png
dino_v8,1,682,NaN,clock,chair,180,0682_ps_dnn_180_chair_10_n03376595_208.png
dino_v8,1,683,NaN,clock,bicycle,150,0683_ps_dnn_150_bicycle_10_n02835271_3529.png
dino_v8,1,684,NaN,clock,clock,180,0684_ps_dnn_180_clock_10_n02708093_2482.png
dino_v8,1,685,NaN,knife,airplane,60,0685_ps_dnn_60_airplane_10_n02690373_1706.png
dino_v8,1,686,NaN,clock,knife,180,0686_ps_dnn_180_knife_10_n03041632_2973.png
dino_v8,1,687,NaN,clock,oven,90,0687_ps_dnn_90_oven_10_n04111531_6346.png
dino_v8,1,688,NaN,clock,oven,180,0688_ps_dnn_180_oven_10_n04111531_10336.png
dino_v8,1,689,NaN,truck,elephant,120,0689_ps_dnn_120_elephant_10_n02504013_25336.png
dino_v8,1,690,NaN,knife,oven,120,0690_ps_dnn_120_oven_10_n04111531_4322.png
dino_v8,1,691,NaN,clock,truck,0,0691_ps_dnn_0_truck_10_n03417042_3482.png
dino_v8,1,692,NaN,clock,bear,180,0692_ps_dnn_180_bear_10_n02132136_5146.png
dino_v8,1,693,NaN,clock,bicycle,90,0693_ps_dnn_90_bicycle_10_n02835271_19853.png
dino_v8,1,694,NaN,knife,bicycle,60,0694_ps_dnn_60_bicycle_10_n03792782_1477.png
dino_v8,1,695,NaN,clock,knife,90,0695_ps_dnn_90_knife_10_n03041632_52371.png
dino_v8,1,696,NaN,clock,bird,150,0696_ps_dnn_150_bird_10_n02007558_7783.png
dino_v8,1,697,NaN,keyboard,boat,90,0697_ps_dnn_90_boat_10_n02951358_30773.png
dino_v8,1,698,NaN,clock,keyboard,180,0698_ps_dnn_180_keyboard_10_n03085013_4298.png
dino_v8,1,699,NaN,clock,airplane,150,0699_ps_dnn_150_airplane_10_n02690373_13021.png
dino_v8,1,700,NaN,boat,chair,90,0700_ps_dnn_90_chair_10_n03376595_8490.png
dino_v8,1,701,NaN,cat,chair,60,0701_ps_dnn_60_chair_10_n02791124_5898.png
dino_v8,1,702,NaN,bird,clock,90,0702_ps_dnn_90_clock_10_n02708093_181.png
dino_v8,1,703,NaN,knife,airplane,30,0703_ps_dnn_30_airplane_10_n02690373_190.png
dino_v8,1,704,NaN,clock,oven,180,0704_ps_dnn_180_oven_10_n04111531_6756.png
dino_v8,1,705,NaN,bicycle,car,120,0705_ps_dnn_120_car_10_n03100240_23906.png
dino_v8,1,706,NaN,bicycle,truck,0,0706_ps_dnn_0_truck_10_n03417042_16038.png
dino_v8,1,707,NaN,chair,elephant,30,0707_ps_dnn_30_elephant_10_n02504458_6602.png
dino_v8,1,708,NaN,bicycle,truck,0,0708_ps_dnn_0_truck_10_n04467665_18234.png
dino_v8,1,709,NaN,clock,bottle,180,0709_ps_dnn_180_bottle_10_n03937543_4259.png
dino_v8,1,710,NaN,bicycle,car,120,0710_ps_dnn_120_car_10_n03100240_17523.png
dino_v8,1,711,NaN,knife,clock,0,0711_ps_dnn_0_clock_10_n02708093_1513.png
dino_v8,1,712,NaN,chair,keyboard,180,0712_ps_dnn_180_keyboard_10_n03085013_4553.png
dino_v8,1,713,NaN,chair,oven,180,0713_ps_dnn_180_oven_10_n04111531_8330.png
dino_v8,1,714,NaN,knife,bird,90,0714_ps_dnn_90_bird_10_n01530575_35115.png
dino_v8,1,715,NaN,clock,elephant,150,0715_ps_dnn_150_elephant_10_n02504458_1600.png
dino_v8,1,716,NaN,knife,knife,30,0716_ps_dnn_30_knife_10_n03041632_3717.png
dino_v8,1,717,NaN,clock,truck,180,0717_ps_dnn_180_truck_10_n04467665_39477.png
dino_v8,1,718,NaN,clock,bear,180,0718_ps_dnn_180_bear_10_n02132136_20883.png
dino_v8,1,719,NaN,clock,bear,150,0719_ps_dnn_150_bear_10_n02133161_2340.png
dino_v8,1,720,NaN,knife,bear,90,0720_ps_dnn_90_bear_10_n02134084_4442.png
dino_v8,1,721,NaN,chair,clock,150,0721_ps_dnn_150_clock_10_n04548280_8314.png
dino_v8,1,722,NaN,boat,oven,0,0722_ps_dnn_0_oven_10_n04111531_13797.png
dino_v8,1,723,NaN,keyboard,car,30,0723_ps_dnn_30_car_10_n04285008_13.png
dino_v8,1,724,NaN,clock,bird,150,0724_ps_dnn_150_bird_10_n02002724_5457.png
dino_v8,1,725,NaN,elephant,airplane,0,0725_ps_dnn_0_airplane_10_n02690373_1325.png
dino_v8,1,726,NaN,knife,knife,0,0726_ps_dnn_0_knife_10_n03041632_24561.png
dino_v8,1,727,NaN,clock,chair,180,0727_ps_dnn_180_chair_10_n03376595_2809.png
dino_v8,1,728,NaN,clock,cat,90,0728_ps_dnn_90_cat_10_n02125311_36331.png
dino_v8,1,729,NaN,clock,oven,90,0729_ps_dnn_90_oven_10_n04111531_7430.png
dino_v8,1,730,NaN,bottle,bottle,30,0730_ps_dnn_30_bottle_10_n04560804_8454.png
dino_v8,1,731,NaN,clock,bear,150,0731_ps_dnn_150_bear_10_n02132136_7067.png
dino_v8,1,732,NaN,knife,knife,0,0732_ps_dnn_0_knife_10_n03041632_33424.png
dino_v8,1,733,NaN,knife,keyboard,30,0733_ps_dnn_30_keyboard_10_n04505470_5171.png
dino_v8,1,734,NaN,clock,oven,180,0734_ps_dnn_180_oven_10_n04111531_14611.png
dino_v8,1,735,NaN,clock,bird,180,0735_ps_dnn_180_bird_10_n02028035_14461.png
dino_v8,1,736,NaN,knife,airplane,60,0736_ps_dnn_60_airplane_10_n02690373_10232.png
dino_v8,1,737,NaN,clock,knife,180,0737_ps_dnn_180_knife_10_n03041632_18859.png
dino_v8,1,738,NaN,clock,truck,150,0738_ps_dnn_150_truck_10_n03417042_1279.png
dino_v8,1,739,NaN,clock,airplane,180,0739_ps_dnn_180_airplane_10_n02690373_4691.png
dino_v8,1,740,NaN,clock,dog,120,0740_ps_dnn_120_dog_10_n02111277_21922.png
dino_v8,1,741,NaN,clock,dog,180,0741_ps_dnn_180_dog_10_n02093991_2725.png
dino_v8,1,742,NaN,car,bottle,90,0742_ps_dnn_90_bottle_10_n04557648_11847.png
dino_v8,1,743,NaN,clock,knife,180,0743_ps_dnn_180_knife_10_n03041632_20697.png
dino_v8,1,744,NaN,keyboard,car,90,0744_ps_dnn_90_car_10_n02814533_35102.png
dino_v8,1,745,NaN,knife,cat,0,0745_ps_dnn_0_cat_10_n02125311_19769.png
dino_v8,1,746,NaN,airplane,keyboard,60,0746_ps_dnn_60_keyboard_10_n03085013_17795.png
dino_v8,1,747,NaN,clock,clock,150,0747_ps_dnn_150_clock_10_n03196217_4019.png
dino_v8,1,748,NaN,clock,bear,120,0748_ps_dnn_120_bear_10_n02134418_2561.png
dino_v8,1,749,NaN,clock,clock,150,0749_ps_dnn_150_clock_10_n04548280_21545.png
dino_v8,1,750,NaN,clock,elephant,150,0750_ps_dnn_150_elephant_10_n02504458_952.png
dino_v8,1,751,NaN,clock,clock,120,0751_ps_dnn_120_clock_10_n02708093_1539.png
dino_v8,1,752,NaN,clock,bird,90,0752_ps_dnn_90_bird_10_n01820546_7575.png
dino_v8,1,753,NaN,keyboard,oven,0,0753_ps_dnn_0_oven_10_n04111531_17576.png
dino_v8,1,754,NaN,knife,elephant,0,0754_ps_dnn_0_elephant_10_n02504013_5217.png
dino_v8,1,755,NaN,clock,airplane,60,0755_ps_dnn_60_airplane_10_n02690373_10399.png
dino_v8,1,756,NaN,knife,dog,30,0756_ps_dnn_30_dog_10_n02101388_5116.png
dino_v8,1,757,NaN,clock,bottle,150,0757_ps_dnn_150_bottle_10_n02823428_3711.png
dino_v8,1,758,NaN,clock,airplane,120,0758_ps_dnn_120_airplane_10_n02690373_2648.png
dino_v8,1,759,NaN,clock,cat,90,0759_ps_dnn_90_cat_10_n02123597_13823.png
dino_v8,1,760,NaN,oven,knife,180,0760_ps_dnn_180_knife_10_n03041632_36814.png
dino_v8,1,761,NaN,elephant,bottle,0,0761_ps_dnn_0_bottle_10_n04560804_26318.png
dino_v8,1,762,NaN,boat,boat,60,0762_ps_dnn_60_boat_10_n03344393_1944.png
dino_v8,1,763,NaN,clock,knife,120,0763_ps_dnn_120_knife_10_n03041632_28129.png
dino_v8,1,764,NaN,knife,cat,60,0764_ps_dnn_60_cat_10_n02123045_7483.png
dino_v8,1,765,NaN,knife,keyboard,0,0765_ps_dnn_0_keyboard_10_n03085013_23192.png
dino_v8,1,766,NaN,chair,clock,60,0766_ps_dnn_60_clock_10_n04548280_7478.png
dino_v8,1,767,NaN,clock,airplane,180,0767_ps_dnn_180_airplane_10_n02690373_7536.png
dino_v8,1,768,NaN,chair,boat,180,0768_ps_dnn_180_boat_10_n03662601_5223.png
dino_v8,1,769,NaN,bear,truck,30,0769_ps_dnn_30_truck_10_n04467665_7329.png
dino_v8,1,770,NaN,chair,bottle,0,0770_ps_dnn_0_bottle_10_n03983396_15006.png
dino_v8,1,771,NaN,clock,clock,180,0771_ps_dnn_180_clock_10_n04548280_5527.png
dino_v8,1,772,NaN,clock,oven,120,0772_ps_dnn_120_oven_10_n04111531_924.png
dino_v8,1,773,NaN,keyboard,car,0,0773_ps_dnn_0_car_10_n03100240_627.png
dino_v8,1,774,NaN,knife,bottle,0,0774_ps_dnn_0_bottle_10_n02823428_2481.png
dino_v8,1,775,NaN,clock,elephant,150,0775_ps_dnn_150_elephant_10_n02504013_6659.png
dino_v8,1,776,NaN,clock,truck,90,0776_ps_dnn_90_truck_10_n03796401_27268.png
dino_v8,1,777,NaN,clock,elephant,150,0777_ps_dnn_150_elephant_10_n02504013_6776.png
dino_v8,1,778,NaN,clock,car,180,0778_ps_dnn_180_car_10_n02814533_66666.png
dino_v8,1,779,NaN,cat,bicycle,90,0779_ps_dnn_90_bicycle_10_n02835271_5821.png
dino_v8,1,780,NaN,knife,boat,30,0780_ps_dnn_30_boat_10_n02951358_16837.png
dino_v8,1,781,NaN,knife,bicycle,30,0781_ps_dnn_30_bicycle_10_n02835271_12188.png
dino_v8,1,782,NaN,clock,bicycle,120,0782_ps_dnn_120_bicycle_10_n02835271_9237.png
dino_v8,1,783,NaN,clock,bottle,60,0783_ps_dnn_60_bottle_10_n04560804_13420.png
dino_v8,1,784,NaN,clock,oven,150,0784_ps_dnn_150_oven_10_n04111531_458.png
dino_v8,1,785,NaN,truck,bottle,180,0785_ps_dnn_180_bottle_10_n03983396_3408.png
dino_v8,1,786,NaN,knife,airplane,30,0786_ps_dnn_30_airplane_10_n02690373_1928.png
dino_v8,1,787,NaN,keyboard,truck,60,0787_ps_dnn_60_truck_10_n03796401_1681.png
dino_v8,1,788,NaN,clock,clock,180,0788_ps_dnn_180_clock_10_n02708093_2721.png
dino_v8,1,789,NaN,clock,dog,150,0789_ps_dnn_150_dog_10_n02108000_6454.png
dino_v8,1,790,NaN,clock,knife,30,0790_ps_dnn_30_knife_10_n03041632_56217.png
dino_v8,1,791,NaN,clock,truck,180,0791_ps_dnn_180_truck_10_n04467665_23054.png
dino_v8,1,792,NaN,clock,truck,120,0792_ps_dnn_120_truck_10_n03796401_28190.png
dino_v8,1,793,NaN,oven,cat,0,0793_ps_dnn_0_cat_10_n02123394_523.png
dino_v8,1,794,NaN,elephant,elephant,0,0794_ps_dnn_0_elephant_10_n02504013_7035.png
dino_v8,1,795,NaN,clock,elephant,30,0795_ps_dnn_30_elephant_10_n02504013_4386.png
dino_v8,1,796,NaN,clock,chair,30,0796_ps_dnn_30_chair_10_n03376595_10332.png
dino_v8,1,797,NaN,chair,keyboard,120,0797_ps_dnn_120_keyboard_10_n03085013_18763.png
dino_v8,1,798,NaN,knife,bird,0,0798_ps_dnn_0_bird_10_n02013706_3221.png
dino_v8,1,799,NaN,knife,bear,30,0799_ps_dnn_30_bear_10_n02134418_5664.png
dino_v8,1,800,NaN,clock,keyboard,180,0800_ps_dnn_180_keyboard_10_n03085013_24392.png
dino_v8,1,801,NaN,bicycle,keyboard,90,0801_ps_dnn_90_keyboard_10_n04505470_4454.png
dino_v8,1,802,NaN,clock,keyboard,90,0802_ps_dnn_90_keyboard_10_n03085013_20357.png
dino_v8,1,803,NaN,clock,car,150,0803_ps_dnn_150_car_10_n04285008_13076.png
dino_v8,1,804,NaN,clock,airplane,150,0804_ps_dnn_150_airplane_10_n02690373_4070.png
dino_v8,1,805,NaN,knife,dog,60,0805_ps_dnn_60_dog_10_n02088094_1145.png
dino_v8,1,806,NaN,cat,bicycle,90,0806_ps_dnn_90_bicycle_10_n02835271_26731.png
dino_v8,1,807,NaN,chair,elephant,30,0807_ps_dnn_30_elephant_10_n02504458_7033.png
dino_v8,1,808,NaN,clock,dog,180,0808_ps_dnn_180_dog_10_n02091244_11713.png
dino_v8,1,809,NaN,bear,bear,90,0809_ps_dnn_90_bear_10_n02133161_4043.png
dino_v8,1,810,NaN,clock,truck,0,0810_ps_dnn_0_truck_10_n03796401_3411.png
dino_v8,1,811,NaN,car,elephant,90,0811_ps_dnn_90_elephant_10_n02504458_3629.png
dino_v8,1,812,NaN,airplane,clock,60,0812_ps_dnn_60_clock_10_n02708093_7973.png
dino_v8,1,813,NaN,car,keyboard,30,0813_ps_dnn_30_keyboard_10_n03085013_19471.png
dino_v8,1,814,NaN,car,knife,60,0814_ps_dnn_60_knife_10_n03041632_36806.png
dino_v8,1,815,NaN,clock,bear,150,0815_ps_dnn_150_bear_10_n02134084_17572.png
dino_v8,1,816,NaN,elephant,airplane,0,0816_ps_dnn_0_airplane_10_n02690373_4119.png
dino_v8,1,817,NaN,clock,clock,150,0817_ps_dnn_150_clock_10_n04548280_3299.png
dino_v8,1,818,NaN,clock,elephant,90,0818_ps_dnn_90_elephant_10_n02504013_3567.png
dino_v8,1,819,NaN,bear,keyboard,0,0819_ps_dnn_0_keyboard_10_n04505470_3306.png
dino_v8,1,820,NaN,knife,bird,60,0820_ps_dnn_60_bird_10_n01560419_6863.png
dino_v8,1,821,NaN,clock,boat,180,0821_ps_dnn_180_boat_10_n03344393_2969.png
dino_v8,1,822,NaN,truck,oven,90,0822_ps_dnn_90_oven_10_n04111531_9304.png
dino_v8,1,823,NaN,truck,clock,180,0823_ps_dnn_180_clock_10_n04548280_9217.png
dino_v8,1,824,NaN,knife,airplane,30,0824_ps_dnn_30_airplane_10_n02690373_9012.png
dino_v8,1,825,NaN,bear,knife,90,0825_ps_dnn_90_knife_10_n03041632_21472.png
dino_v8,1,826,NaN,boat,keyboard,60,0826_ps_dnn_60_keyboard_10_n04505470_4479.png
dino_v8,1,827,NaN,clock,bicycle,120,0827_ps_dnn_120_bicycle_10_n02835271_13644.png
dino_v8,1,828,NaN,clock,cat,120,0828_ps_dnn_120_cat_10_n02125311_9615.png
dino_v8,1,829,NaN,knife,bear,30,0829_ps_dnn_30_bear_10_n02134084_13394.png
dino_v8,1,830,NaN,knife,boat,30,0830_ps_dnn_30_boat_10_n03344393_8374.png
dino_v8,1,831,NaN,clock,clock,120,0831_ps_dnn_120_clock_10_n02708093_111.png
dino_v8,1,832,NaN,truck,bicycle,120,0832_ps_dnn_120_bicycle_10_n03792782_11272.png
dino_v8,1,833,NaN,cat,bicycle,60,0833_ps_dnn_60_bicycle_10_n03792782_17673.png
dino_v8,1,834,NaN,chair,chair,30,0834_ps_dnn_30_chair_10_n03376595_12364.png
dino_v8,1,835,NaN,truck,bicycle,150,0835_ps_dnn_150_bicycle_10_n03792782_6731.png
dino_v8,1,836,NaN,knife,bicycle,90,0836_ps_dnn_90_bicycle_10_n02835271_22739.png
dino_v8,1,837,NaN,truck,car,180,0837_ps_dnn_180_car_10_n03100240_18276.png
dino_v8,1,838,NaN,clock,elephant,90,0838_ps_dnn_90_elephant_10_n02504013_15805.png
dino_v8,1,839,NaN,knife,clock,60,0839_ps_dnn_60_clock_10_n04548280_4709.png
dino_v8,1,840,NaN,bicycle,boat,0,0840_ps_dnn_0_boat_10_n03662601_37095.png
dino_v8,1,841,NaN,bear,bird,0,0841_ps_dnn_0_bird_10_n01622779_6183.png
dino_v8,1,842,NaN,bicycle,keyboard,90,0842_ps_dnn_90_keyboard_10_n04505470_5063.png
dino_v8,1,843,NaN,bear,bird,90,0843_ps_dnn_90_bird_10_n01582220_261.png
dino_v8,1,844,NaN,clock,bottle,150,0844_ps_dnn_150_bottle_10_n03937543_4783.png
dino_v8,1,845,NaN,bear,bear,30,0845_ps_dnn_30_bear_10_n02133161_545.png
dino_v8,1,846,NaN,car,clock,60,0846_ps_dnn_60_clock_10_n04548280_4178.png
dino_v8,1,847,NaN,cat,elephant,60,0847_ps_dnn_60_elephant_10_n02504013_299.png
dino_v8,1,848,NaN,clock,clock,90,0848_ps_dnn_90_clock_10_n02708093_204.png
dino_v8,1,849,NaN,clock,chair,120,0849_ps_dnn_120_chair_10_n03376595_10569.png
dino_v8,1,850,NaN,bicycle,keyboard,30,0850_ps_dnn_30_keyboard_10_n03085013_2842.png
dino_v8,1,851,NaN,chair,knife,0,0851_ps_dnn_0_knife_10_n03041632_9635.png
dino_v8,1,852,NaN,knife,boat,30,0852_ps_dnn_30_boat_10_n03662601_26273.png
dino_v8,1,853,NaN,knife,chair,60,0853_ps_dnn_60_chair_10_n04429376_10449.png
dino_v8,1,854,NaN,knife,bottle,60,0854_ps_dnn_60_bottle_10_n04557648_10582.png
dino_v8,1,855,NaN,clock,oven,0,0855_ps_dnn_0_oven_10_n04111531_6428.png
dino_v8,1,856,NaN,cat,car,30,0856_ps_dnn_30_car_10_n03100240_12777.png
dino_v8,1,857,NaN,knife,bird,30,0857_ps_dnn_30_bird_10_n01860187_5008.png
dino_v8,1,858,NaN,chair,elephant,0,0858_ps_dnn_0_elephant_10_n02504013_1698.png
dino_v8,1,859,NaN,clock,cat,180,0859_ps_dnn_180_cat_10_n02124075_8470.png
dino_v8,1,860,NaN,truck,boat,180,0860_ps_dnn_180_boat_10_n02951358_2999.png
dino_v8,1,861,NaN,keyboard,cat,30,0861_ps_dnn_30_cat_10_n02123045_9813.png
dino_v8,1,862,NaN,clock,bird,150,0862_ps_dnn_150_bird_10_n01833805_30804.png
dino_v8,1,863,NaN,oven,oven,0,0863_ps_dnn_0_oven_10_n04111531_2342.png
dino_v8,1,864,NaN,clock,truck,90,0864_ps_dnn_90_truck_10_n03417042_3238.png
dino_v8,1,865,NaN,knife,chair,30,0865_ps_dnn_30_chair_10_n03376595_15124.png
dino_v8,1,866,NaN,knife,knife,0,0866_ps_dnn_0_knife_10_n03041632_13225.png
dino_v8,1,867,NaN,bicycle,elephant,90,0867_ps_dnn_90_elephant_10_n02504013_8856.png
dino_v8,1,868,NaN,clock,cat,90,0868_ps_dnn_90_cat_10_n02125311_36138.png
dino_v8,1,869,NaN,truck,bird,60,0869_ps_dnn_60_bird_10_n02011460_3509.png
dino_v8,1,870,NaN,clock,car,120,0870_ps_dnn_120_car_10_n02814533_19373.png
dino_v8,1,871,NaN,knife,cat,0,0871_ps_dnn_0_cat_10_n02123045_10887.png
dino_v8,1,872,NaN,clock,truck,90,0872_ps_dnn_90_truck_10_n03796401_7104.png
dino_v8,1,873,NaN,clock,clock,150,0873_ps_dnn_150_clock_10_n04548280_8398.png
dino_v8,1,874,NaN,airplane,bear,0,0874_ps_dnn_0_bear_10_n02133161_1032.png
dino_v8,1,875,NaN,clock,bird,180,0875_ps_dnn_180_bird_10_n01796340_5016.png
dino_v8,1,876,NaN,knife,knife,30,0876_ps_dnn_30_knife_10_n03041632_36277.png
dino_v8,1,877,NaN,clock,truck,90,0877_ps_dnn_90_truck_10_n03417042_1978.png
dino_v8,1,878,NaN,clock,dog,150,0878_ps_dnn_150_dog_10_n02110806_2269.png
dino_v8,1,879,NaN,cat,boat,0,0879_ps_dnn_0_boat_10_n02951358_12713.png
dino_v8,1,880,NaN,clock,cat,120,0880_ps_dnn_120_cat_10_n02123159_3289.png
dino_v8,1,881,NaN,knife,airplane,30,0881_ps_dnn_30_airplane_10_n02690373_19107.png
dino_v8,1,882,NaN,clock,knife,150,0882_ps_dnn_150_knife_10_n03041632_27879.png
dino_v8,1,883,NaN,clock,clock,120,0883_ps_dnn_120_clock_10_n02708093_4061.png
dino_v8,1,884,NaN,clock,elephant,120,0884_ps_dnn_120_elephant_10_n02504013_1908.png
dino_v8,1,885,NaN,knife,car,0,0885_ps_dnn_0_car_10_n03100240_22290.png
dino_v8,1,886,NaN,clock,cat,180,0886_ps_dnn_180_cat_10_n02123045_5422.png
dino_v8,1,887,NaN,bicycle,oven,60,0887_ps_dnn_60_oven_10_n04111531_15912.png
dino_v8,1,888,NaN,knife,truck,0,0888_ps_dnn_0_truck_10_n03796401_4017.png
dino_v8,1,889,NaN,clock,knife,150,0889_ps_dnn_150_knife_10_n03041632_7064.png
dino_v8,1,890,NaN,knife,oven,30,0890_ps_dnn_30_oven_10_n04111531_22834.png
dino_v8,1,891,NaN,clock,truck,0,0891_ps_dnn_0_truck_10_n03417042_3389.png
dino_v8,1,892,NaN,clock,bear,180,0892_ps_dnn_180_bear_10_n02133161_832.png
dino_v8,1,893,NaN,clock,bear,90,0893_ps_dnn_90_bear_10_n02132136_9055.png
dino_v8,1,894,NaN,cat,oven,60,0894_ps_dnn_60_oven_10_n04111531_3886.png
dino_v8,1,895,NaN,knife,bicycle,30,0895_ps_dnn_30_bicycle_10_n02835271_11842.png
dino_v8,1,896,NaN,clock,knife,150,0896_ps_dnn_150_knife_10_n03041632_2319.png
dino_v8,1,897,NaN,chair,keyboard,120,0897_ps_dnn_120_keyboard_10_n04505470_4535.png
dino_v8,1,898,NaN,clock,dog,150,0898_ps_dnn_150_dog_10_n02109525_40708.png
dino_v8,1,899,NaN,knife,car,0,0899_ps_dnn_0_car_10_n02814533_76388.png
dino_v8,1,900,NaN,elephant,clock,0,0900_ps_dnn_0_clock_10_n02708093_1360.png
dino_v8,1,901,NaN,truck,knife,120,0901_ps_dnn_120_knife_10_n03041632_26340.png
dino_v8,1,902,NaN,clock,knife,90,0902_ps_dnn_90_knife_10_n03041632_24100.png
dino_v8,1,903,NaN,clock,keyboard,60,0903_ps_dnn_60_keyboard_10_n03085013_19565.png
dino_v8,1,904,NaN,clock,car,120,0904_ps_dnn_120_car_10_n04285008_3268.png
dino_v8,1,905,NaN,clock,truck,120,0905_ps_dnn_120_truck_10_n03796401_2007.png
dino_v8,1,906,NaN,clock,car,180,0906_ps_dnn_180_car_10_n02814533_8490.png
dino_v8,1,907,NaN,knife,bear,0,0907_ps_dnn_0_bear_10_n02134084_42197.png
dino_v8,1,908,NaN,chair,dog,0,0908_ps_dnn_0_dog_10_n02095314_261.png
dino_v8,1,909,NaN,clock,clock,150,0909_ps_dnn_150_clock_10_n03196217_1153.png
dino_v8,1,910,NaN,clock,chair,150,0910_ps_dnn_150_chair_10_n04429376_6242.png
dino_v8,1,911,NaN,bicycle,keyboard,30,0911_ps_dnn_30_keyboard_10_n03085013_3632.png
dino_v8,1,912,NaN,cat,elephant,60,0912_ps_dnn_60_elephant_10_n02504458_2103.png
dino_v8,1,913,NaN,knife,bird,0,0913_ps_dnn_0_bird_10_n01537544_1943.png
dino_v8,1,914,NaN,clock,cat,180,0914_ps_dnn_180_cat_10_n02125311_11440.png
dino_v8,1,915,NaN,clock,chair,150,0915_ps_dnn_150_chair_10_n02791124_7987.png
dino_v8,1,916,NaN,clock,bicycle,150,0916_ps_dnn_150_bicycle_10_n02835271_10770.png
dino_v8,1,917,NaN,clock,knife,90,0917_ps_dnn_90_knife_10_n03041632_25498.png
dino_v8,1,918,NaN,knife,cat,60,0918_ps_dnn_60_cat_10_n02124075_12059.png
dino_v8,1,919,NaN,chair,boat,180,0919_ps_dnn_180_boat_10_n04273569_12888.png
dino_v8,1,920,NaN,elephant,clock,0,0920_ps_dnn_0_clock_10_n04548280_5699.png
dino_v8,1,921,NaN,keyboard,car,0,0921_ps_dnn_0_car_10_n03100240_9982.png
dino_v8,1,922,NaN,knife,clock,60,0922_ps_dnn_60_clock_10_n04548280_11597.png
dino_v8,1,923,NaN,clock,bear,150,0923_ps_dnn_150_bear_10_n02134418_10318.png
dino_v8,1,924,NaN,bicycle,oven,30,0924_ps_dnn_30_oven_10_n04111531_21733.png
dino_v8,1,925,NaN,clock,dog,150,0925_ps_dnn_150_dog_10_n02089973_2756.png
dino_v8,1,926,NaN,knife,dog,30,0926_ps_dnn_30_dog_10_n02109961_14202.png
dino_v8,1,927,NaN,car,clock,0,0927_ps_dnn_0_clock_10_n03196217_8020.png
dino_v8,1,928,NaN,cat,chair,90,0928_ps_dnn_90_chair_10_n03376595_14563.png
dino_v8,1,929,NaN,truck,elephant,120,0929_ps_dnn_120_elephant_10_n02504013_2340.png
dino_v8,1,930,NaN,knife,bicycle,60,0930_ps_dnn_60_bicycle_10_n02835271_20714.png
dino_v8,1,931,NaN,truck,elephant,120,0931_ps_dnn_120_elephant_10_n02504458_694.png
dino_v8,1,932,NaN,car,oven,0,0932_ps_dnn_0_oven_10_n04111531_3202.png
dino_v8,1,933,NaN,bicycle,bottle,90,0933_ps_dnn_90_bottle_10_n04579145_3149.png
dino_v8,1,934,NaN,elephant,bottle,30,0934_ps_dnn_30_bottle_10_n04591713_5558.png
dino_v8,1,935,NaN,clock,elephant,150,0935_ps_dnn_150_elephant_10_n02504458_5470.png
dino_v8,1,936,NaN,knife,bicycle,0,0936_ps_dnn_0_bicycle_10_n03792782_23912.png
dino_v8,1,937,NaN,clock,cat,120,0937_ps_dnn_120_cat_10_n02123597_5217.png
dino_v8,1,938,NaN,chair,boat,150,0938_ps_dnn_150_boat_10_n03662601_18953.png
dino_v8,1,939,NaN,knife,car,60,0939_ps_dnn_60_car_10_n04285008_6410.png
dino_v8,1,940,NaN,clock,keyboard,150,0940_ps_dnn_150_keyboard_10_n03085013_15162.png
dino_v8,1,941,NaN,clock,boat,120,0941_ps_dnn_120_boat_10_n03344393_8117.png
dino_v8,1,942,NaN,clock,cat,180,0942_ps_dnn_180_cat_10_n02123045_13220.png
dino_v8,1,943,NaN,clock,bicycle,180,0943_ps_dnn_180_bicycle_10_n02835271_1653.png
dino_v8,1,944,NaN,clock,elephant,180,0944_ps_dnn_180_elephant_10_n02504458_4207.png
dino_v8,1,945,NaN,airplane,chair,0,0945_ps_dnn_0_chair_10_n04429376_49351.png
dino_v8,1,946,NaN,knife,dog,0,0946_ps_dnn_0_dog_10_n02107908_1423.png
dino_v8,1,947,NaN,knife,cat,0,0947_ps_dnn_0_cat_10_n02124075_14800.png
dino_v8,1,948,NaN,clock,oven,90,0948_ps_dnn_90_oven_10_n04111531_2803.png
dino_v8,1,949,NaN,chair,chair,180,0949_ps_dnn_180_chair_10_n04099969_9960.png
dino_v8,1,950,NaN,clock,cat,90,0950_ps_dnn_90_cat_10_n02123394_6311.png
dino_v8,1,951,NaN,keyboard,car,90,0951_ps_dnn_90_car_10_n02814533_52627.png
dino_v8,1,952,NaN,clock,airplane,90,0952_ps_dnn_90_airplane_10_n02690373_5422.png
dino_v8,1,953,NaN,clock,dog,180,0953_ps_dnn_180_dog_10_n02108000_5623.png
dino_v8,1,954,NaN,clock,keyboard,150,0954_ps_dnn_150_keyboard_10_n03085013_17884.png
dino_v8,1,955,NaN,clock,truck,180,0955_ps_dnn_180_truck_10_n03417042_6809.png
dino_v8,1,956,NaN,knife,truck,90,0956_ps_dnn_90_truck_10_n03417042_12711.png
dino_v8,1,957,NaN,knife,elephant,0,0957_ps_dnn_0_elephant_10_n02504013_5996.png
dino_v8,1,958,NaN,clock,knife,150,0958_ps_dnn_150_knife_10_n03041632_16606.png
dino_v8,1,959,NaN,cat,bottle,90,0959_ps_dnn_90_bottle_10_n03983396_3185.png
dino_v8,1,960,NaN,chair,chair,150,0960_ps_dnn_150_chair_10_n03376595_1302.png
dino_v8,1,961,NaN,clock,bicycle,150,0961_ps_dnn_150_bicycle_10_n02835271_4396.png
dino_v8,1,962,NaN,truck,chair,90,0962_ps_dnn_90_chair_10_n02791124_1941.png
dino_v8,1,963,NaN,clock,keyboard,120,0963_ps_dnn_120_keyboard_10_n04505470_1157.png
dino_v8,1,964,NaN,knife,keyboard,0,0964_ps_dnn_0_keyboard_10_n04505470_1117.png
dino_v8,1,965,NaN,clock,airplane,120,0965_ps_dnn_120_airplane_10_n02690373_10395.png
dino_v8,1,966,NaN,bicycle,bottle,30,0966_ps_dnn_30_bottle_10_n04579145_3769.png
dino_v8,1,967,NaN,bicycle,truck,0,0967_ps_dnn_0_truck_10_n03417042_19650.png
dino_v8,1,968,NaN,clock,chair,120,0968_ps_dnn_120_chair_10_n02791124_5823.png
dino_v8,1,969,NaN,chair,bird,120,0969_ps_dnn_120_bird_10_n01614925_17980.png
dino_v8,1,970,NaN,clock,chair,150,0970_ps_dnn_150_chair_10_n04429376_20628.png
dino_v8,1,971,NaN,clock,bear,150,0971_ps_dnn_150_bear_10_n02133161_14317.png
dino_v8,1,972,NaN,clock,car,150,0972_ps_dnn_150_car_10_n04285008_12696.png
dino_v8,1,973,NaN,truck,boat,120,0973_ps_dnn_120_boat_10_n04612504_15155.png
dino_v8,1,974,NaN,chair,elephant,30,0974_ps_dnn_30_elephant_10_n02504458_10332.png
dino_v8,1,975,NaN,truck,chair,120,0975_ps_dnn_120_chair_10_n02791124_4319.png
dino_v8,1,976,NaN,knife,knife,0,0976_ps_dnn_0_knife_10_n03041632_9157.png
dino_v8,1,977,NaN,clock,dog,120,0977_ps_dnn_120_dog_10_n02105855_17066.png
dino_v8,1,978,NaN,clock,boat,30,0978_ps_dnn_30_boat_10_n03344393_5296.png
dino_v8,1,979,NaN,clock,oven,30,0979_ps_dnn_30_oven_10_n04111531_2770.png
dino_v8,1,980,NaN,clock,car,150,0980_ps_dnn_150_car_10_n03100240_16145.png
dino_v8,1,981,NaN,clock,elephant,150,0981_ps_dnn_150_elephant_10_n02504013_10920.png
dino_v8,1,982,NaN,clock,car,150,0982_ps_dnn_150_car_10_n04285008_810.png
dino_v8,1,983,NaN,chair,keyboard,60,0983_ps_dnn_60_keyboard_10_n03085013_6424.png
dino_v8,1,984,NaN,bicycle,cat,30,0984_ps_dnn_30_cat_10_n02125311_15293.png
dino_v8,1,985,NaN,clock,bottle,90,0985_ps_dnn_90_bottle_10_n04591713_2014.png
dino_v8,1,986,NaN,bicycle,bear,120,0986_ps_dnn_120_bear_10_n02132136_3616.png
dino_v8,1,987,NaN,knife,car,0,0987_ps_dnn_0_car_10_n03100240_18069.png
dino_v8,1,988,NaN,clock,truck,120,0988_ps_dnn_120_truck_10_n03796401_25021.png
dino_v8,1,989,NaN,knife,clock,0,0989_ps_dnn_0_clock_10_n03196217_3605.png
dino_v8,1,990,NaN,knife,keyboard,30,0990_ps_dnn_30_keyboard_10_n04505470_6963.png
dino_v8,1,991,NaN,keyboard,truck,60,0991_ps_dnn_60_truck_10_n03417042_18374.png
dino_v8,1,992,NaN,knife,keyboard,60,0992_ps_dnn_60_keyboard_10_n04505470_2597.png
dino_v8,1,993,NaN,chair,oven,0,0993_ps_dnn_0_oven_10_n04111531_1488.png
dino_v8,1,994,NaN,boat,knife,60,0994_ps_dnn_60_knife_10_n03041632_105581.png
dino_v8,1,995,NaN,chair,elephant,60,0995_ps_dnn_60_elephant_10_n02504013_4229.png
dino_v8,1,996,NaN,clock,truck,150,0996_ps_dnn_150_truck_10_n03417042_18705.png
dino_v8,1,997,NaN,bicycle,oven,30,0997_ps_dnn_30_oven_10_n04111531_16198.png
dino_v8,1,998,NaN,bicycle,truck,0,0998_ps_dnn_0_truck_10_n03796401_24543.png
dino_v8,1,999,NaN,clock,clock,90,0999_ps_dnn_90_clock_10_n04548280_548.png
dino_v8,1,1000,NaN,chair,dog,180,1000_ps_dnn_180_dog_10_n02106166_134.png
dino_v8,1,1001,NaN,clock,cat,120,1001_ps_dnn_120_cat_10_n02123045_8336.png
dino_v8,1,1002,NaN,clock,bottle,120,1002_ps_dnn_120_bottle_10_n03937543_10666.png
dino_v8,1,1003,NaN,clock,bear,120,1003_ps_dnn_120_bear_10_n02134084_4028.png
dino_v8,1,1004,NaN,clock,knife,30,1004_ps_dnn_30_knife_10_n03041632_20770.png
dino_v8,1,1005,NaN,clock,car,150,1005_ps_dnn_150_car_10_n04285008_7511.png
dino_v8,1,1006,NaN,clock,keyboard,180,1006_ps_dnn_180_keyboard_10_n03085013_25675.png
dino_v8,1,1007,NaN,clock,elephant,120,1007_ps_dnn_120_elephant_10_n02504458_3511.png
dino_v8,1,1008,NaN,knife,elephant,90,1008_ps_dnn_90_elephant_10_n02504458_2662.png
dino_v8,1,1009,NaN,knife,bicycle,0,1009_ps_dnn_0_bicycle_10_n02835271_759.png
dino_v8,1,1010,NaN,boat,bottle,30,1010_ps_dnn_30_bottle_10_n04557648_7693.png
dino_v8,1,1011,NaN,chair,chair,150,1011_ps_dnn_150_chair_10_n03376595_10700.png
dino_v8,1,1012,NaN,knife,keyboard,60,1012_ps_dnn_60_keyboard_10_n04505470_46.png
dino_v8,1,1013,NaN,oven,bear,150,1013_ps_dnn_150_bear_10_n02134084_3860.png
dino_v8,1,1014,NaN,clock,dog,60,1014_ps_dnn_60_dog_10_n02099429_3814.png
dino_v8,1,1015,NaN,keyboard,car,30,1015_ps_dnn_30_car_10_n03100240_1294.png
dino_v8,1,1016,NaN,knife,cat,30,1016_ps_dnn_30_cat_10_n02123159_677.png
dino_v8,1,1017,NaN,knife,airplane,60,1017_ps_dnn_60_airplane_10_n02690373_13078.png
dino_v8,1,1018,NaN,clock,truck,150,1018_ps_dnn_150_truck_10_n03417042_10476.png
dino_v8,1,1019,NaN,clock,bottle,150,1019_ps_dnn_150_bottle_10_n03937543_793.png
dino_v8,1,1020,NaN,clock,bicycle,120,1020_ps_dnn_120_bicycle_10_n02835271_4138.png
dino_v8,1,1021,NaN,clock,truck,30,1021_ps_dnn_30_truck_10_n04467665_23914.png
dino_v8,1,1022,NaN,knife,bicycle,30,1022_ps_dnn_30_bicycle_10_n02835271_22143.png
dino_v8,1,1023,NaN,truck,oven,120,1023_ps_dnn_120_oven_10_n04111531_2385.png
dino_v8,1,1024,NaN,clock,clock,120,1024_ps_dnn_120_clock_10_n03196217_5745.png
dino_v8,1,1025,NaN,cat,bottle,60,1025_ps_dnn_60_bottle_10_n03983396_10027.png
dino_v8,1,1026,NaN,clock,oven,90,1026_ps_dnn_90_oven_10_n04111531_30110.png
dino_v8,1,1027,NaN,truck,bear,120,1027_ps_dnn_120_bear_10_n02134084_825.png
dino_v8,1,1028,NaN,clock,keyboard,180,1028_ps_dnn_180_keyboard_10_n03085013_23254.png
dino_v8,1,1029,NaN,clock,keyboard,120,1029_ps_dnn_120_keyboard_10_n03085013_7752.png
dino_v8,1,1030,NaN,bicycle,dog,90,1030_ps_dnn_90_dog_10_n02095314_5408.png
dino_v8,1,1031,NaN,clock,bottle,90,1031_ps_dnn_90_bottle_10_n02823428_14196.png
dino_v8,1,1032,NaN,knife,boat,90,1032_ps_dnn_90_boat_10_n04273569_7733.png
dino_v8,1,1033,NaN,knife,cat,0,1033_ps_dnn_0_cat_10_n02123597_2232.png
dino_v8,1,1034,NaN,keyboard,airplane,120,1034_ps_dnn_120_airplane_10_n02690373_3709.png
dino_v8,1,1035,NaN,knife,bicycle,30,1035_ps_dnn_30_bicycle_10_n02835271_807.png
dino_v8,1,1036,NaN,clock,clock,180,1036_ps_dnn_180_clock_10_n04548280_2334.png
dino_v8,1,1037,NaN,boat,chair,90,1037_ps_dnn_90_chair_10_n02791124_538.png
dino_v8,1,1038,NaN,chair,dog,0,1038_ps_dnn_0_dog_10_n02097047_705.png
dino_v8,1,1039,NaN,knife,car,0,1039_ps_dnn_0_car_10_n03100240_4343.png
dino_v8,1,1040,NaN,knife,cat,90,1040_ps_dnn_90_cat_10_n02123394_702.png
dino_v8,1,1041,NaN,knife,bear,0,1041_ps_dnn_0_bear_10_n02134418_2254.png
dino_v8,1,1042,NaN,knife,bicycle,0,1042_ps_dnn_0_bicycle_10_n02835271_9866.png
dino_v8,1,1043,NaN,bicycle,cat,30,1043_ps_dnn_30_cat_10_n02125311_46527.png
dino_v8,1,1044,NaN,knife,bird,60,1044_ps_dnn_60_bird_10_n02056570_8536.png
dino_v8,1,1045,NaN,clock,dog,120,1045_ps_dnn_120_dog_10_n02099849_2217.png
dino_v8,1,1046,NaN,bicycle,oven,60,1046_ps_dnn_60_oven_10_n04111531_22263.png
dino_v8,1,1047,NaN,clock,bottle,150,1047_ps_dnn_150_bottle_10_n02823428_8543.png
dino_v8,1,1048,NaN,clock,dog,60,1048_ps_dnn_60_dog_10_n02111129_8015.png
dino_v8,1,1049,NaN,boat,knife,60,1049_ps_dnn_60_knife_10_n03041632_4714.png
dino_v8,1,1050,NaN,knife,bicycle,30,1050_ps_dnn_30_bicycle_10_n03792782_4277.png
dino_v8,1,1051,NaN,knife,chair,0,1051_ps_dnn_0_chair_10_n02791124_2928.png
dino_v8,1,1052,NaN,clock,bicycle,150,1052_ps_dnn_150_bicycle_10_n02835271_783.png
dino_v8,1,1053,NaN,bicycle,clock,0,1053_ps_dnn_0_clock_10_n04548280_4426.png
dino_v8,1,1054,NaN,keyboard,boat,60,1054_ps_dnn_60_boat_10_n02951358_12080.png
dino_v8,1,1055,NaN,cat,keyboard,90,1055_ps_dnn_90_keyboard_10_n03085013_5726.png
dino_v8,1,1056,NaN,knife,bicycle,0,1056_ps_dnn_0_bicycle_10_n02835271_7256.png
dino_v8,1,1057,NaN,clock,elephant,90,1057_ps_dnn_90_elephant_10_n02504458_7857.png
dino_v8,1,1058,NaN,clock,chair,150,1058_ps_dnn_150_chair_10_n04099969_16178.png
dino_v8,1,1059,NaN,knife,boat,0,1059_ps_dnn_0_boat_10_n04273569_4330.png
dino_v8,1,1060,NaN,clock,car,180,1060_ps_dnn_180_car_10_n02814533_39517.png
dino_v8,1,1061,NaN,knife,airplane,30,1061_ps_dnn_30_airplane_10_n02690373_2882.png
dino_v8,1,1062,NaN,clock,dog,120,1062_ps_dnn_120_dog_10_n02086240_7359.png
dino_v8,1,1063,NaN,clock,oven,120,1063_ps_dnn_120_oven_10_n04111531_3286.png
dino_v8,1,1064,NaN,clock,truck,120,1064_ps_dnn_120_truck_10_n03796401_7518.png
dino_v8,1,1065,NaN,clock,elephant,180,1065_ps_dnn_180_elephant_10_n02504458_1929.png
dino_v8,1,1066,NaN,knife,chair,30,1066_ps_dnn_30_chair_10_n04099969_26310.png
dino_v8,1,1067,NaN,clock,bottle,150,1067_ps_dnn_150_bottle_10_n03937543_964.png
dino_v8,1,1068,NaN,clock,bird,180,1068_ps_dnn_180_bird_10_n01818515_11687.png
dino_v8,1,1069,NaN,clock,chair,60,1069_ps_dnn_60_chair_10_n02791124_13469.png
dino_v8,1,1070,NaN,knife,cat,30,1070_ps_dnn_30_cat_10_n02123045_13172.png
dino_v8,1,1071,NaN,truck,elephant,120,1071_ps_dnn_120_elephant_10_n02504013_22557.png
dino_v8,1,1072,NaN,elephant,bird,0,1072_ps_dnn_0_bird_10_n01616318_1831.png
dino_v8,1,1073,NaN,knife,cat,90,1073_ps_dnn_90_cat_10_n02123045_12691.png
dino_v8,1,1074,NaN,clock,boat,90,1074_ps_dnn_90_boat_10_n03662601_9069.png
dino_v8,1,1075,NaN,clock,keyboard,150,1075_ps_dnn_150_keyboard_10_n03085013_20730.png
dino_v8,1,1076,NaN,clock,bear,150,1076_ps_dnn_150_bear_10_n02133161_4820.png
dino_v8,1,1077,NaN,clock,airplane,120,1077_ps_dnn_120_airplane_10_n02690373_4495.png
dino_v8,1,1078,NaN,chair,elephant,0,1078_ps_dnn_0_elephant_10_n02504458_7200.png
dino_v8,1,1079,NaN,clock,boat,0,1079_ps_dnn_0_boat_10_n03344393_3032.png
dino_v8,1,1080,NaN,knife,bicycle,30,1080_ps_dnn_30_bicycle_10_n02835271_2505.png
dino_v8,1,1081,NaN,keyboard,car,60,1081_ps_dnn_60_car_10_n04285008_11990.png
dino_v8,1,1082,NaN,clock,truck,90,1082_ps_dnn_90_truck_10_n03796401_6772.png
dino_v8,1,1083,NaN,clock,car,120,1083_ps_dnn_120_car_10_n04285008_13247.png
dino_v8,1,1084,NaN,knife,airplane,60,1084_ps_dnn_60_airplane_10_n02690373_4728.png
dino_v8,1,1085,NaN,knife,keyboard,0,1085_ps_dnn_0_keyboard_10_n04505470_9514.png
dino_v8,1,1086,NaN,chair,elephant,60,1086_ps_dnn_60_elephant_10_n02504458_6715.png
dino_v8,1,1087,NaN,clock,elephant,150,1087_ps_dnn_150_elephant_10_n02504458_7827.png
dino_v8,1,1088,NaN,clock,clock,120,1088_ps_dnn_120_clock_10_n02708093_480.png
dino_v8,1,1089,NaN,knife,clock,60,1089_ps_dnn_60_clock_10_n04548280_5866.png
dino_v8,1,1090,NaN,bear,oven,60,1090_ps_dnn_60_oven_10_n04111531_7345.png
dino_v8,1,1091,NaN,clock,keyboard,180,1091_ps_dnn_180_keyboard_10_n04505470_5062.png
dino_v8,1,1092,NaN,truck,bottle,120,1092_ps_dnn_120_bottle_10_n02823428_3111.png
dino_v8,1,1093,NaN,clock,truck,120,1093_ps_dnn_120_truck_10_n03796401_8254.png
dino_v8,1,1094,NaN,knife,bicycle,0,1094_ps_dnn_0_bicycle_10_n03792782_54196.png
dino_v8,1,1095,NaN,clock,bird,150,1095_ps_dnn_150_bird_10_n01798484_55.png
dino_v8,1,1096,NaN,chair,truck,180,1096_ps_dnn_180_truck_10_n04467665_35490.png
dino_v8,1,1097,NaN,knife,truck,0,1097_ps_dnn_0_truck_10_n03417042_28794.png
dino_v8,1,1098,NaN,clock,bird,180,1098_ps_dnn_180_bird_10_n01820546_3828.png
dino_v8,1,1099,NaN,clock,boat,120,1099_ps_dnn_120_boat_10_n03662601_4541.png
dino_v8,1,1100,NaN,airplane,clock,30,1100_ps_dnn_30_clock_10_n03196217_5267.png
dino_v8,1,1101,NaN,bird,bicycle,120,1101_ps_dnn_120_bicycle_10_n02835271_10822.png
dino_v8,1,1102,NaN,knife,chair,30,1102_ps_dnn_30_chair_10_n04099969_15882.png
dino_v8,1,1103,NaN,chair,cat,0,1103_ps_dnn_0_cat_10_n02123159_6206.png
dino_v8,1,1104,NaN,clock,airplane,90,1104_ps_dnn_90_airplane_10_n02690373_1696.png
dino_v8,1,1105,NaN,clock,car,120,1105_ps_dnn_120_car_10_n02814533_13533.png
dino_v8,1,1106,NaN,keyboard,car,30,1106_ps_dnn_30_car_10_n03100240_16775.png
dino_v8,1,1107,NaN,clock,elephant,180,1107_ps_dnn_180_elephant_10_n02504013_17589.png
dino_v8,1,1108,NaN,airplane,bottle,120,1108_ps_dnn_120_bottle_10_n04557648_1136.png
dino_v8,1,1109,NaN,clock,oven,60,1109_ps_dnn_60_oven_10_n04111531_6590.png
dino_v8,1,1110,NaN,clock,boat,150,1110_ps_dnn_150_boat_10_n03344393_5265.png
dino_v8,1,1111,NaN,truck,bottle,120,1111_ps_dnn_120_bottle_10_n03937543_5343.png
dino_v8,1,1112,NaN,chair,truck,90,1112_ps_dnn_90_truck_10_n04467665_22731.png
dino_v8,1,1113,NaN,clock,knife,30,1113_ps_dnn_30_knife_10_n03041632_11327.png
dino_v8,1,1114,NaN,clock,oven,150,1114_ps_dnn_150_oven_10_n04111531_22084.png
dino_v8,1,1115,NaN,bicycle,chair,0,1115_ps_dnn_0_chair_10_n02791124_1049.png
dino_v8,1,1116,NaN,clock,boat,150,1116_ps_dnn_150_boat_10_n04273569_1145.png
dino_v8,1,1117,NaN,knife,cat,60,1117_ps_dnn_60_cat_10_n02123394_6487.png
dino_v8,1,1118,NaN,bicycle,car,30,1118_ps_dnn_30_car_10_n02814533_40773.png
dino_v8,1,1119,NaN,clock,airplane,180,1119_ps_dnn_180_airplane_10_n02690373_1316.png
dino_v8,1,1120,NaN,clock,chair,180,1120_ps_dnn_180_chair_10_n02791124_5109.png
