subj,session,trial,rt,object_response,category,condition,imagename
clip,1,1,NaN,knife,car,64-3-10,0001_eid_dnn_64-3-10_car_10_n04285008_8113.png
clip,1,2,NaN,knife,oven,8-3-10,0002_eid_dnn_8-3-10_oven_10_n04111531_11848.png
clip,1,3,NaN,knife,truck,8-3-10,0003_eid_dnn_8-3-10_truck_10_n03417042_25458.png
clip,1,4,NaN,knife,chair,16-3-10,0004_eid_dnn_16-3-10_chair_10_n03376595_6208.png
clip,1,5,NaN,knife,cat,32-3-10,0005_eid_dnn_32-3-10_cat_10_n02123045_12084.png
clip,1,6,NaN,keyboard,keyboard,8-3-10,0006_eid_dnn_8-3-10_keyboard_10_n03085013_20884.png
clip,1,7,NaN,airplane,airplane,4-3-10,0007_eid_dnn_4-3-10_airplane_10_n02690373_5992.png
clip,1,8,NaN,knife,bear,32-3-10,0008_eid_dnn_32-3-10_bear_10_n02132136_6641.png
clip,1,9,NaN,knife,oven,2-3-10,0009_eid_dnn_2-3-10_oven_10_n04111531_2797.png
clip,1,10,NaN,airplane,airplane,2-3-10,0010_eid_dnn_2-3-10_airplane_10_n02690373_7457.png
clip,1,11,NaN,knife,truck,16-3-10,0011_eid_dnn_16-3-10_truck_10_n03796401_2751.png
clip,1,12,NaN,bear,bear,2-3-10,0012_eid_dnn_2-3-10_bear_10_n02134418_860.png
clip,1,13,NaN,knife,knife,4-3-10,0013_eid_dnn_4-3-10_knife_10_n03041632_2058.png
clip,1,14,NaN,knife,airplane,32-3-10,0014_eid_dnn_32-3-10_airplane_10_n02690373_10510.png
clip,1,15,NaN,dog,keyboard,64-3-10,0015_eid_dnn_64-3-10_keyboard_10_n03085013_6313.png
clip,1,16,NaN,bicycle,bicycle,4-3-10,0016_eid_dnn_4-3-10_bicycle_10_n02835271_6278.png
clip,1,17,NaN,keyboard,keyboard,2-3-10,0017_eid_dnn_2-3-10_keyboard_10_n03085013_24192.png
clip,1,18,NaN,car,car,2-3-10,0018_eid_dnn_2-3-10_car_10_n04285008_8255.png
clip,1,19,NaN,airplane,airplane,2-3-10,0019_eid_dnn_2-3-10_airplane_10_n02690373_4591.png
clip,1,20,NaN,airplane,airplane,4-3-10,0020_eid_dnn_4-3-10_airplane_10_n02690373_7075.png
clip,1,21,NaN,bicycle,bicycle,4-3-10,0021_eid_dnn_4-3-10_bicycle_10_n02835271_21464.png
clip,1,22,NaN,cat,car,64-3-10,0022_eid_dnn_64-3-10_car_10_n03100240_362.png
clip,1,23,NaN,oven,truck,32-3-10,0023_eid_dnn_32-3-10_truck_10_n04467665_50927.png
clip,1,24,NaN,oven,car,16-3-10,0024_eid_dnn_16-3-10_car_10_n04285008_3651.png
clip,1,25,NaN,cat,bottle,8-3-10,0025_eid_dnn_8-3-10_bottle_10_n04557648_4974.png
clip,1,26,NaN,knife,bird,16-3-10,0026_eid_dnn_16-3-10_bird_10_n01537544_23499.png
clip,1,27,NaN,boat,boat,1-3-10,0027_eid_dnn_1-3-10_boat_10_n04612504_11387.png
clip,1,28,NaN,bottle,bottle,4-3-10,0028_eid_dnn_4-3-10_bottle_10_n03983396_4300.png
clip,1,29,NaN,knife,bottle,64-3-10,0029_eid_dnn_64-3-10_bottle_10_n04591713_6961.png
clip,1,30,NaN,knife,clock,128-3-10,0030_eid_dnn_128-3-10_clock_10_n02708093_3361.png
clip,1,31,NaN,knife,truck,32-3-10,0031_eid_dnn_32-3-10_truck_10_n03417042_18374.png
clip,1,32,NaN,knife,knife,64-3-10,0032_eid_dnn_64-3-10_knife_10_n03041632_36280.png
clip,1,33,NaN,bird,bird,8-3-10,0033_eid_dnn_8-3-10_bird_10_n01614925_47.png
clip,1,34,NaN,boat,bicycle,8-3-10,0034_eid_dnn_8-3-10_bicycle_10_n02835271_20099.png
clip,1,35,NaN,bear,bear,4-3-10,0035_eid_dnn_4-3-10_bear_10_n02134084_12070.png
clip,1,36,NaN,oven,bottle,8-3-10,0036_eid_dnn_8-3-10_bottle_10_n02823428_8525.png
clip,1,37,NaN,bicycle,truck,32-3-10,0037_eid_dnn_32-3-10_truck_10_n04467665_37953.png
clip,1,38,NaN,cat,oven,128-3-10,0038_eid_dnn_128-3-10_oven_10_n04111531_4868.png
clip,1,39,NaN,cat,boat,32-3-10,0039_eid_dnn_32-3-10_boat_10_n03662601_19840.png
clip,1,40,NaN,truck,truck,8-3-10,0040_eid_dnn_8-3-10_truck_10_n04467665_9331.png
clip,1,41,NaN,cat,dog,64-3-10,0041_eid_dnn_64-3-10_dog_10_n02111277_16090.png
clip,1,42,NaN,bottle,bottle,4-3-10,0042_eid_dnn_4-3-10_bottle_10_n02823428_6731.png
clip,1,43,NaN,bear,elephant,8-3-10,0043_eid_dnn_8-3-10_elephant_10_n02504013_8930.png
clip,1,44,NaN,car,car,4-3-10,0044_eid_dnn_4-3-10_car_10_n03100240_13673.png
clip,1,45,NaN,knife,bird,128-3-10,0045_eid_dnn_128-3-10_bird_10_n02018207_6819.png
clip,1,46,NaN,elephant,elephant,4-3-10,0046_eid_dnn_4-3-10_elephant_10_n02504013_6065.png
clip,1,47,NaN,cat,cat,1-3-10,0047_eid_dnn_1-3-10_cat_10_n02123394_384.png
clip,1,48,NaN,bear,bicycle,16-3-10,0048_eid_dnn_16-3-10_bicycle_10_n02835271_12608.png
clip,1,49,NaN,chair,chair,2-3-10,0049_eid_dnn_2-3-10_chair_10_n03376595_13949.png
clip,1,50,NaN,cat,airplane,128-3-10,0050_eid_dnn_128-3-10_airplane_10_n02690373_3561.png
clip,1,51,NaN,bicycle,bicycle,32-3-10,0051_eid_dnn_32-3-10_bicycle_10_n02835271_8203.png
clip,1,52,NaN,bicycle,bicycle,2-3-10,0052_eid_dnn_2-3-10_bicycle_10_n03792782_5665.png
clip,1,53,NaN,knife,bicycle,128-3-10,0053_eid_dnn_128-3-10_bicycle_10_n02835271_15028.png
clip,1,54,NaN,clock,clock,1-3-10,0054_eid_dnn_1-3-10_clock_10_n04548280_3318.png
clip,1,55,NaN,cat,cat,128-3-10,0055_eid_dnn_128-3-10_cat_10_n02123045_8784.png
clip,1,56,NaN,cat,knife,128-3-10,0056_eid_dnn_128-3-10_knife_10_n03041632_3247.png
clip,1,57,NaN,dog,dog,8-3-10,0057_eid_dnn_8-3-10_dog_10_n02110185_11414.png
clip,1,58,NaN,knife,dog,32-3-10,0058_eid_dnn_32-3-10_dog_10_n02113712_2715.png
clip,1,59,NaN,elephant,elephant,2-3-10,0059_eid_dnn_2-3-10_elephant_10_n02504458_1210.png
clip,1,60,NaN,knife,car,16-3-10,0060_eid_dnn_16-3-10_car_10_n02814533_32337.png
clip,1,61,NaN,car,car,4-3-10,0061_eid_dnn_4-3-10_car_10_n02814533_55326.png
clip,1,62,NaN,cat,knife,64-3-10,0062_eid_dnn_64-3-10_knife_10_n03041632_32774.png
clip,1,63,NaN,bear,bicycle,8-3-10,0063_eid_dnn_8-3-10_bicycle_10_n02835271_11921.png
clip,1,64,NaN,knife,chair,32-3-10,0064_eid_dnn_32-3-10_chair_10_n03376595_6115.png
clip,1,65,NaN,bear,bear,16-3-10,0065_eid_dnn_16-3-10_bear_10_n02133161_79.png
clip,1,66,NaN,boat,boat,1-3-10,0066_eid_dnn_1-3-10_boat_10_n03662601_34796.png
clip,1,67,NaN,bird,bird,4-3-10,0067_eid_dnn_4-3-10_bird_10_n02051845_8976.png
clip,1,68,NaN,boat,boat,4-3-10,0068_eid_dnn_4-3-10_boat_10_n03344393_7362.png
clip,1,69,NaN,knife,car,32-3-10,0069_eid_dnn_32-3-10_car_10_n02814533_34289.png
clip,1,70,NaN,knife,keyboard,16-3-10,0070_eid_dnn_16-3-10_keyboard_10_n03085013_2166.png
clip,1,71,NaN,bear,bear,2-3-10,0071_eid_dnn_2-3-10_bear_10_n02133161_10167.png
clip,1,72,NaN,cat,keyboard,16-3-10,0072_eid_dnn_16-3-10_keyboard_10_n04505470_430.png
clip,1,73,NaN,knife,boat,128-3-10,0073_eid_dnn_128-3-10_boat_10_n03662601_17001.png
clip,1,74,NaN,knife,bear,128-3-10,0074_eid_dnn_128-3-10_bear_10_n02133161_5157.png
clip,1,75,NaN,boat,boat,2-3-10,0075_eid_dnn_2-3-10_boat_10_n02951358_17870.png
clip,1,76,NaN,knife,cat,64-3-10,0076_eid_dnn_64-3-10_cat_10_n02123159_1102.png
clip,1,77,NaN,cat,cat,32-3-10,0077_eid_dnn_32-3-10_cat_10_n02123045_4252.png
clip,1,78,NaN,keyboard,keyboard,2-3-10,0078_eid_dnn_2-3-10_keyboard_10_n04505470_4294.png
clip,1,79,NaN,truck,truck,2-3-10,0079_eid_dnn_2-3-10_truck_10_n04467665_1101.png
clip,1,80,NaN,knife,airplane,64-3-10,0080_eid_dnn_64-3-10_airplane_10_n02690373_2078.png
clip,1,81,NaN,cat,boat,64-3-10,0081_eid_dnn_64-3-10_boat_10_n04612504_5535.png
clip,1,82,NaN,knife,cat,16-3-10,0082_eid_dnn_16-3-10_cat_10_n02125311_15099.png
clip,1,83,NaN,knife,airplane,64-3-10,0083_eid_dnn_64-3-10_airplane_10_n02690373_4671.png
clip,1,84,NaN,truck,truck,1-3-10,0084_eid_dnn_1-3-10_truck_10_n03417042_9062.png
clip,1,85,NaN,cat,cat,4-3-10,0085_eid_dnn_4-3-10_cat_10_n02123394_283.png
clip,1,86,NaN,car,car,1-3-10,0086_eid_dnn_1-3-10_car_10_n02814533_3375.png
clip,1,87,NaN,cat,cat,2-3-10,0087_eid_dnn_2-3-10_cat_10_n02124075_9706.png
clip,1,88,NaN,car,car,2-3-10,0088_eid_dnn_2-3-10_car_10_n04285008_10563.png
clip,1,89,NaN,cat,clock,64-3-10,0089_eid_dnn_64-3-10_clock_10_n03196217_3283.png
clip,1,90,NaN,cat,oven,128-3-10,0090_eid_dnn_128-3-10_oven_10_n04111531_21120.png
clip,1,91,NaN,bird,bird,1-3-10,0091_eid_dnn_1-3-10_bird_10_n01824575_6186.png
clip,1,92,NaN,dog,dog,4-3-10,0092_eid_dnn_4-3-10_dog_10_n02102318_11155.png
clip,1,93,NaN,bear,clock,16-3-10,0093_eid_dnn_16-3-10_clock_10_n04548280_2283.png
clip,1,94,NaN,knife,chair,128-3-10,0094_eid_dnn_128-3-10_chair_10_n03376595_18787.png
clip,1,95,NaN,knife,keyboard,8-3-10,0095_eid_dnn_8-3-10_keyboard_10_n04505470_1903.png
clip,1,96,NaN,oven,clock,16-3-10,0096_eid_dnn_16-3-10_clock_10_n03196217_6185.png
clip,1,97,NaN,clock,clock,2-3-10,0097_eid_dnn_2-3-10_clock_10_n03196217_10424.png
clip,1,98,NaN,knife,knife,2-3-10,0098_eid_dnn_2-3-10_knife_10_n03041632_43436.png
clip,1,99,NaN,dog,dog,1-3-10,0099_eid_dnn_1-3-10_dog_10_n02093647_5955.png
clip,1,100,NaN,cat,boat,32-3-10,0100_eid_dnn_32-3-10_boat_10_n03662601_5423.png
clip,1,101,NaN,knife,keyboard,128-3-10,0101_eid_dnn_128-3-10_keyboard_10_n04505470_9457.png
clip,1,102,NaN,cat,knife,128-3-10,0102_eid_dnn_128-3-10_knife_10_n03041632_38535.png
clip,1,103,NaN,elephant,elephant,8-3-10,0103_eid_dnn_8-3-10_elephant_10_n02504458_8141.png
clip,1,104,NaN,airplane,airplane,4-3-10,0104_eid_dnn_4-3-10_airplane_10_n02690373_9086.png
clip,1,105,NaN,knife,bicycle,16-3-10,0105_eid_dnn_16-3-10_bicycle_10_n03792782_19116.png
clip,1,106,NaN,elephant,elephant,4-3-10,0106_eid_dnn_4-3-10_elephant_10_n02504458_2343.png
clip,1,107,NaN,airplane,airplane,16-3-10,0107_eid_dnn_16-3-10_airplane_10_n02690373_7093.png
clip,1,108,NaN,knife,car,32-3-10,0108_eid_dnn_32-3-10_car_10_n03100240_7935.png
clip,1,109,NaN,knife,airplane,16-3-10,0109_eid_dnn_16-3-10_airplane_10_n02690373_8611.png
clip,1,110,NaN,bear,bear,2-3-10,0110_eid_dnn_2-3-10_bear_10_n02133161_7332.png
clip,1,111,NaN,car,car,2-3-10,0111_eid_dnn_2-3-10_car_10_n03100240_9387.png
clip,1,112,NaN,cat,cat,4-3-10,0112_eid_dnn_4-3-10_cat_10_n02124075_521.png
clip,1,113,NaN,cat,bottle,128-3-10,0113_eid_dnn_128-3-10_bottle_10_n04560804_3746.png
clip,1,114,NaN,knife,elephant,16-3-10,0114_eid_dnn_16-3-10_elephant_10_n02504458_1127.png
clip,1,115,NaN,knife,knife,8-3-10,0115_eid_dnn_8-3-10_knife_10_n03041632_14132.png
clip,1,116,NaN,oven,oven,1-3-10,0116_eid_dnn_1-3-10_oven_10_n04111531_18916.png
clip,1,117,NaN,oven,oven,1-3-10,0117_eid_dnn_1-3-10_oven_10_n04111531_19274.png
clip,1,118,NaN,bird,bird,2-3-10,0118_eid_dnn_2-3-10_bird_10_n01843383_277.png
clip,1,119,NaN,airplane,boat,64-3-10,0119_eid_dnn_64-3-10_boat_10_n03344393_6799.png
clip,1,120,NaN,dog,dog,2-3-10,0120_eid_dnn_2-3-10_dog_10_n02093428_16887.png
clip,1,121,NaN,knife,elephant,64-3-10,0121_eid_dnn_64-3-10_elephant_10_n02504458_6163.png
clip,1,122,NaN,oven,bottle,64-3-10,0122_eid_dnn_64-3-10_bottle_10_n04591713_2826.png
clip,1,123,NaN,cat,bottle,64-3-10,0123_eid_dnn_64-3-10_bottle_10_n04557648_3598.png
clip,1,124,NaN,boat,truck,8-3-10,0124_eid_dnn_8-3-10_truck_10_n04467665_80629.png
clip,1,125,NaN,bear,bear,4-3-10,0125_eid_dnn_4-3-10_bear_10_n02134084_6869.png
clip,1,126,NaN,bird,bird,1-3-10,0126_eid_dnn_1-3-10_bird_10_n01820546_4457.png
clip,1,127,NaN,cat,clock,64-3-10,0127_eid_dnn_64-3-10_clock_10_n04548280_7565.png
clip,1,128,NaN,oven,elephant,16-3-10,0128_eid_dnn_16-3-10_elephant_10_n02504458_98.png
clip,1,129,NaN,cat,bicycle,64-3-10,0129_eid_dnn_64-3-10_bicycle_10_n03792782_7143.png
clip,1,130,NaN,elephant,dog,16-3-10,0130_eid_dnn_16-3-10_dog_10_n02096051_5524.png
clip,1,131,NaN,dog,cat,16-3-10,0131_eid_dnn_16-3-10_cat_10_n02123045_9465.png
clip,1,132,NaN,cat,cat,64-3-10,0132_eid_dnn_64-3-10_cat_10_n02123159_9450.png
clip,1,133,NaN,clock,clock,4-3-10,0133_eid_dnn_4-3-10_clock_10_n02708093_8204.png
clip,1,134,NaN,boat,airplane,32-3-10,0134_eid_dnn_32-3-10_airplane_10_n02690373_2619.png
clip,1,135,NaN,car,car,2-3-10,0135_eid_dnn_2-3-10_car_10_n04285008_11295.png
clip,1,136,NaN,bear,bear,8-3-10,0136_eid_dnn_8-3-10_bear_10_n02133161_15481.png
clip,1,137,NaN,knife,truck,64-3-10,0137_eid_dnn_64-3-10_truck_10_n03417042_8139.png
clip,1,138,NaN,knife,bottle,16-3-10,0138_eid_dnn_16-3-10_bottle_10_n04557648_4490.png
clip,1,139,NaN,clock,clock,1-3-10,0139_eid_dnn_1-3-10_clock_10_n03196217_5399.png
clip,1,140,NaN,boat,boat,1-3-10,0140_eid_dnn_1-3-10_boat_10_n04273569_4136.png
clip,1,141,NaN,clock,clock,4-3-10,0141_eid_dnn_4-3-10_clock_10_n04548280_2127.png
clip,1,142,NaN,boat,boat,2-3-10,0142_eid_dnn_2-3-10_boat_10_n03344393_10038.png
clip,1,143,NaN,elephant,elephant,2-3-10,0143_eid_dnn_2-3-10_elephant_10_n02504013_10793.png
clip,1,144,NaN,knife,oven,128-3-10,0144_eid_dnn_128-3-10_oven_10_n04111531_6590.png
clip,1,145,NaN,knife,keyboard,16-3-10,0145_eid_dnn_16-3-10_keyboard_10_n03085013_10984.png
clip,1,146,NaN,bicycle,bicycle,2-3-10,0146_eid_dnn_2-3-10_bicycle_10_n02835271_14879.png
clip,1,147,NaN,cat,knife,64-3-10,0147_eid_dnn_64-3-10_knife_10_n03041632_22241.png
clip,1,148,NaN,knife,oven,64-3-10,0148_eid_dnn_64-3-10_oven_10_n04111531_892.png
clip,1,149,NaN,cat,bear,64-3-10,0149_eid_dnn_64-3-10_bear_10_n02134418_14850.png
clip,1,150,NaN,knife,knife,64-3-10,0150_eid_dnn_64-3-10_knife_10_n03041632_48071.png
clip,1,151,NaN,oven,clock,16-3-10,0151_eid_dnn_16-3-10_clock_10_n04548280_64.png
clip,1,152,NaN,knife,truck,64-3-10,0152_eid_dnn_64-3-10_truck_10_n03796401_6285.png
clip,1,153,NaN,airplane,airplane,4-3-10,0153_eid_dnn_4-3-10_airplane_10_n02690373_6682.png
clip,1,154,NaN,cat,knife,64-3-10,0154_eid_dnn_64-3-10_knife_10_n03041632_17285.png
clip,1,155,NaN,boat,boat,2-3-10,0155_eid_dnn_2-3-10_boat_10_n02951358_8184.png
clip,1,156,NaN,bear,bear,1-3-10,0156_eid_dnn_1-3-10_bear_10_n02132136_2346.png
clip,1,157,NaN,cat,bear,8-3-10,0157_eid_dnn_8-3-10_bear_10_n02134418_2187.png
clip,1,158,NaN,bear,cat,32-3-10,0158_eid_dnn_32-3-10_cat_10_n02124075_10162.png
clip,1,159,NaN,knife,truck,128-3-10,0159_eid_dnn_128-3-10_truck_10_n03417042_8998.png
clip,1,160,NaN,knife,cat,64-3-10,0160_eid_dnn_64-3-10_cat_10_n02123597_13835.png
clip,1,161,NaN,clock,clock,1-3-10,0161_eid_dnn_1-3-10_clock_10_n04548280_18914.png
clip,1,162,NaN,keyboard,keyboard,2-3-10,0162_eid_dnn_2-3-10_keyboard_10_n03085013_2676.png
clip,1,163,NaN,airplane,airplane,16-3-10,0163_eid_dnn_16-3-10_airplane_10_n02690373_7600.png
clip,1,164,NaN,knife,chair,16-3-10,0164_eid_dnn_16-3-10_chair_10_n04429376_17917.png
clip,1,165,NaN,chair,keyboard,4-3-10,0165_eid_dnn_4-3-10_keyboard_10_n04505470_4492.png
clip,1,166,NaN,bear,bear,1-3-10,0166_eid_dnn_1-3-10_bear_10_n02134418_3148.png
clip,1,167,NaN,bear,cat,4-3-10,0167_eid_dnn_4-3-10_cat_10_n02125311_20388.png
clip,1,168,NaN,cat,cat,64-3-10,0168_eid_dnn_64-3-10_cat_10_n02123394_2153.png
clip,1,169,NaN,oven,clock,1-3-10,0169_eid_dnn_1-3-10_clock_10_n04548280_5327.png
clip,1,170,NaN,chair,bicycle,8-3-10,0170_eid_dnn_8-3-10_bicycle_10_n03792782_63054.png
clip,1,171,NaN,knife,chair,32-3-10,0171_eid_dnn_32-3-10_chair_10_n03376595_14138.png
clip,1,172,NaN,elephant,elephant,2-3-10,0172_eid_dnn_2-3-10_elephant_10_n02504458_4849.png
clip,1,173,NaN,knife,dog,128-3-10,0173_eid_dnn_128-3-10_dog_10_n02113624_4844.png
clip,1,174,NaN,elephant,elephant,2-3-10,0174_eid_dnn_2-3-10_elephant_10_n02504013_2549.png
clip,1,175,NaN,bear,bear,8-3-10,0175_eid_dnn_8-3-10_bear_10_n02134084_4593.png
clip,1,176,NaN,knife,bicycle,64-3-10,0176_eid_dnn_64-3-10_bicycle_10_n02835271_75.png
clip,1,177,NaN,truck,truck,4-3-10,0177_eid_dnn_4-3-10_truck_10_n03796401_20943.png
clip,1,178,NaN,oven,knife,2-3-10,0178_eid_dnn_2-3-10_knife_10_n03041632_32048.png
clip,1,179,NaN,cat,cat,1-3-10,0179_eid_dnn_1-3-10_cat_10_n02123159_3536.png
clip,1,180,NaN,bicycle,bicycle,1-3-10,0180_eid_dnn_1-3-10_bicycle_10_n03792782_6716.png
clip,1,181,NaN,clock,clock,2-3-10,0181_eid_dnn_2-3-10_clock_10_n03196217_1754.png
clip,1,182,NaN,bicycle,bicycle,1-3-10,0182_eid_dnn_1-3-10_bicycle_10_n03792782_5404.png
clip,1,183,NaN,knife,dog,64-3-10,0183_eid_dnn_64-3-10_dog_10_n02096294_3014.png
clip,1,184,NaN,bear,bear,4-3-10,0184_eid_dnn_4-3-10_bear_10_n02134084_23382.png
clip,1,185,NaN,car,car,4-3-10,0185_eid_dnn_4-3-10_car_10_n03100240_310.png
clip,1,186,NaN,dog,dog,4-3-10,0186_eid_dnn_4-3-10_dog_10_n02093256_1653.png
clip,1,187,NaN,elephant,elephant,4-3-10,0187_eid_dnn_4-3-10_elephant_10_n02504013_1740.png
clip,1,188,NaN,knife,bear,64-3-10,0188_eid_dnn_64-3-10_bear_10_n02134084_34375.png
clip,1,189,NaN,knife,keyboard,8-3-10,0189_eid_dnn_8-3-10_keyboard_10_n03085013_23254.png
clip,1,190,NaN,airplane,elephant,32-3-10,0190_eid_dnn_32-3-10_elephant_10_n02504013_1512.png
clip,1,191,NaN,bear,car,8-3-10,0191_eid_dnn_8-3-10_car_10_n04285008_6454.png
clip,1,192,NaN,keyboard,keyboard,4-3-10,0192_eid_dnn_4-3-10_keyboard_10_n04505470_7721.png
clip,1,193,NaN,cat,keyboard,16-3-10,0193_eid_dnn_16-3-10_keyboard_10_n04505470_3388.png
clip,1,194,NaN,boat,boat,2-3-10,0194_eid_dnn_2-3-10_boat_10_n03344393_4221.png
clip,1,195,NaN,knife,cat,128-3-10,0195_eid_dnn_128-3-10_cat_10_n02123597_14361.png
clip,1,196,NaN,knife,bird,128-3-10,0196_eid_dnn_128-3-10_bird_10_n02006656_10058.png
clip,1,197,NaN,knife,clock,32-3-10,0197_eid_dnn_32-3-10_clock_10_n02708093_8104.png
clip,1,198,NaN,truck,truck,1-3-10,0198_eid_dnn_1-3-10_truck_10_n03417042_3845.png
clip,1,199,NaN,knife,boat,64-3-10,0199_eid_dnn_64-3-10_boat_10_n03662601_36741.png
clip,1,200,NaN,knife,knife,1-3-10,0200_eid_dnn_1-3-10_knife_10_n03041632_22570.png
clip,1,201,NaN,keyboard,keyboard,1-3-10,0201_eid_dnn_1-3-10_keyboard_10_n04505470_4109.png
clip,1,202,NaN,airplane,airplane,1-3-10,0202_eid_dnn_1-3-10_airplane_10_n02690373_10404.png
clip,1,203,NaN,elephant,elephant,4-3-10,0203_eid_dnn_4-3-10_elephant_10_n02504458_4725.png
clip,1,204,NaN,airplane,airplane,1-3-10,0204_eid_dnn_1-3-10_airplane_10_n02690373_1325.png
clip,1,205,NaN,bear,bicycle,8-3-10,0205_eid_dnn_8-3-10_bicycle_10_n03792782_6841.png
clip,1,206,NaN,chair,chair,2-3-10,0206_eid_dnn_2-3-10_chair_10_n04099969_1669.png
clip,1,207,NaN,knife,bottle,32-3-10,0207_eid_dnn_32-3-10_bottle_10_n03937543_5324.png
clip,1,208,NaN,bottle,bottle,4-3-10,0208_eid_dnn_4-3-10_bottle_10_n03937543_2143.png
clip,1,209,NaN,bottle,bottle,2-3-10,0209_eid_dnn_2-3-10_bottle_10_n04557648_2575.png
clip,1,210,NaN,knife,knife,8-3-10,0210_eid_dnn_8-3-10_knife_10_n03041632_9671.png
clip,1,211,NaN,bear,bottle,16-3-10,0211_eid_dnn_16-3-10_bottle_10_n04560804_4145.png
clip,1,212,NaN,knife,clock,64-3-10,0212_eid_dnn_64-3-10_clock_10_n03196217_1187.png
clip,1,213,NaN,clock,clock,4-3-10,0213_eid_dnn_4-3-10_clock_10_n04548280_2111.png
clip,1,214,NaN,cat,dog,128-3-10,0214_eid_dnn_128-3-10_dog_10_n02086079_6578.png
clip,1,215,NaN,knife,car,16-3-10,0215_eid_dnn_16-3-10_car_10_n03100240_14045.png
clip,1,216,NaN,boat,boat,8-3-10,0216_eid_dnn_8-3-10_boat_10_n02951358_30908.png
clip,1,217,NaN,knife,oven,4-3-10,0217_eid_dnn_4-3-10_oven_10_n04111531_2199.png
clip,1,218,NaN,bear,elephant,8-3-10,0218_eid_dnn_8-3-10_elephant_10_n02504013_5641.png
clip,1,219,NaN,keyboard,keyboard,2-3-10,0219_eid_dnn_2-3-10_keyboard_10_n03085013_6740.png
clip,1,220,NaN,clock,clock,2-3-10,0220_eid_dnn_2-3-10_clock_10_n04548280_319.png
clip,1,221,NaN,cat,knife,32-3-10,0221_eid_dnn_32-3-10_knife_10_n03041632_43506.png
clip,1,222,NaN,boat,boat,16-3-10,0222_eid_dnn_16-3-10_boat_10_n03344393_9712.png
clip,1,223,NaN,knife,knife,1-3-10,0223_eid_dnn_1-3-10_knife_10_n03041632_9963.png
clip,1,224,NaN,bird,bird,1-3-10,0224_eid_dnn_1-3-10_bird_10_n02002556_18595.png
clip,1,225,NaN,dog,bird,4-3-10,0225_eid_dnn_4-3-10_bird_10_n01860187_20777.png
clip,1,226,NaN,knife,keyboard,32-3-10,0226_eid_dnn_32-3-10_keyboard_10_n03085013_24626.png
clip,1,227,NaN,cat,oven,16-3-10,0227_eid_dnn_16-3-10_oven_10_n04111531_7097.png
clip,1,228,NaN,knife,chair,16-3-10,0228_eid_dnn_16-3-10_chair_10_n02791124_12486.png
clip,1,229,NaN,knife,cat,128-3-10,0229_eid_dnn_128-3-10_cat_10_n02123045_6629.png
clip,1,230,NaN,bear,bird,16-3-10,0230_eid_dnn_16-3-10_bird_10_n01819313_5388.png
clip,1,231,NaN,cat,truck,32-3-10,0231_eid_dnn_32-3-10_truck_10_n04467665_4940.png
clip,1,232,NaN,knife,knife,8-3-10,0232_eid_dnn_8-3-10_knife_10_n03041632_20433.png
clip,1,233,NaN,clock,clock,2-3-10,0233_eid_dnn_2-3-10_clock_10_n04548280_6792.png
clip,1,234,NaN,bicycle,bicycle,4-3-10,0234_eid_dnn_4-3-10_bicycle_10_n02835271_5413.png
clip,1,235,NaN,car,car,2-3-10,0235_eid_dnn_2-3-10_car_10_n04285008_5005.png
clip,1,236,NaN,car,car,2-3-10,0236_eid_dnn_2-3-10_car_10_n02814533_88088.png
clip,1,237,NaN,knife,elephant,64-3-10,0237_eid_dnn_64-3-10_elephant_10_n02504458_11345.png
clip,1,238,NaN,knife,elephant,16-3-10,0238_eid_dnn_16-3-10_elephant_10_n02504013_1900.png
clip,1,239,NaN,knife,bear,128-3-10,0239_eid_dnn_128-3-10_bear_10_n02133161_5708.png
clip,1,240,NaN,cat,cat,8-3-10,0240_eid_dnn_8-3-10_cat_10_n02124075_5828.png
clip,1,241,NaN,elephant,bird,64-3-10,0241_eid_dnn_64-3-10_bird_10_n01582220_9392.png
clip,1,242,NaN,clock,clock,1-3-10,0242_eid_dnn_1-3-10_clock_10_n02708093_4597.png
clip,1,243,NaN,knife,bicycle,128-3-10,0243_eid_dnn_128-3-10_bicycle_10_n03792782_26306.png
clip,1,244,NaN,cat,bear,32-3-10,0244_eid_dnn_32-3-10_bear_10_n02132136_1795.png
clip,1,245,NaN,cat,clock,128-3-10,0245_eid_dnn_128-3-10_clock_10_n02708093_3638.png
clip,1,246,NaN,keyboard,keyboard,4-3-10,0246_eid_dnn_4-3-10_keyboard_10_n03085013_21272.png
clip,1,247,NaN,knife,chair,8-3-10,0247_eid_dnn_8-3-10_chair_10_n02791124_16926.png
clip,1,248,NaN,dog,knife,8-3-10,0248_eid_dnn_8-3-10_knife_10_n03041632_84048.png
clip,1,249,NaN,bottle,oven,2-3-10,0249_eid_dnn_2-3-10_oven_10_n04111531_550.png
clip,1,250,NaN,knife,boat,128-3-10,0250_eid_dnn_128-3-10_boat_10_n03662601_21992.png
clip,1,251,NaN,cat,bear,32-3-10,0251_eid_dnn_32-3-10_bear_10_n02134418_280.png
clip,1,252,NaN,bear,bottle,8-3-10,0252_eid_dnn_8-3-10_bottle_10_n04560804_8385.png
clip,1,253,NaN,cat,elephant,64-3-10,0253_eid_dnn_64-3-10_elephant_10_n02504013_4183.png
clip,1,254,NaN,bird,bird,1-3-10,0254_eid_dnn_1-3-10_bird_10_n01560419_19608.png
clip,1,255,NaN,bird,bird,4-3-10,0255_eid_dnn_4-3-10_bird_10_n02056570_8865.png
clip,1,256,NaN,cat,cat,2-3-10,0256_eid_dnn_2-3-10_cat_10_n02123394_2553.png
clip,1,257,NaN,knife,bear,128-3-10,0257_eid_dnn_128-3-10_bear_10_n02132136_10113.png
clip,1,258,NaN,knife,oven,8-3-10,0258_eid_dnn_8-3-10_oven_10_n04111531_2758.png
clip,1,259,NaN,oven,keyboard,64-3-10,0259_eid_dnn_64-3-10_keyboard_10_n04505470_4824.png
clip,1,260,NaN,bicycle,bicycle,2-3-10,0260_eid_dnn_2-3-10_bicycle_10_n02835271_8654.png
clip,1,261,NaN,knife,keyboard,128-3-10,0261_eid_dnn_128-3-10_keyboard_10_n03085013_34973.png
clip,1,262,NaN,cat,cat,4-3-10,0262_eid_dnn_4-3-10_cat_10_n02123394_4228.png
clip,1,263,NaN,knife,keyboard,32-3-10,0263_eid_dnn_32-3-10_keyboard_10_n03085013_24416.png
clip,1,264,NaN,cat,cat,8-3-10,0264_eid_dnn_8-3-10_cat_10_n02124075_5729.png
clip,1,265,NaN,knife,clock,32-3-10,0265_eid_dnn_32-3-10_clock_10_n03196217_6357.png
clip,1,266,NaN,cat,truck,128-3-10,0266_eid_dnn_128-3-10_truck_10_n03417042_29478.png
clip,1,267,NaN,bird,chair,128-3-10,0267_eid_dnn_128-3-10_chair_10_n04099969_18678.png
clip,1,268,NaN,knife,clock,32-3-10,0268_eid_dnn_32-3-10_clock_10_n02708093_4286.png
clip,1,269,NaN,knife,car,128-3-10,0269_eid_dnn_128-3-10_car_10_n03100240_21971.png
clip,1,270,NaN,car,car,1-3-10,0270_eid_dnn_1-3-10_car_10_n03100240_84.png
clip,1,271,NaN,dog,dog,1-3-10,0271_eid_dnn_1-3-10_dog_10_n02094433_3186.png
clip,1,272,NaN,dog,dog,4-3-10,0272_eid_dnn_4-3-10_dog_10_n02088364_10195.png
clip,1,273,NaN,knife,knife,16-3-10,0273_eid_dnn_16-3-10_knife_10_n03041632_11358.png
clip,1,274,NaN,bottle,bird,64-3-10,0274_eid_dnn_64-3-10_bird_10_n01531178_10630.png
clip,1,275,NaN,elephant,elephant,1-3-10,0275_eid_dnn_1-3-10_elephant_10_n02504458_4058.png
clip,1,276,NaN,knife,keyboard,32-3-10,0276_eid_dnn_32-3-10_keyboard_10_n03085013_24336.png
clip,1,277,NaN,clock,clock,4-3-10,0277_eid_dnn_4-3-10_clock_10_n02708093_386.png
clip,1,278,NaN,chair,chair,4-3-10,0278_eid_dnn_4-3-10_chair_10_n04429376_16370.png
clip,1,279,NaN,bottle,bottle,1-3-10,0279_eid_dnn_1-3-10_bottle_10_n04557648_10167.png
clip,1,280,NaN,bicycle,bicycle,1-3-10,0280_eid_dnn_1-3-10_bicycle_10_n02835271_15717.png
clip,1,281,NaN,knife,car,128-3-10,0281_eid_dnn_128-3-10_car_10_n03100240_22593.png
clip,1,282,NaN,car,car,1-3-10,0282_eid_dnn_1-3-10_car_10_n04285008_11240.png
clip,1,283,NaN,boat,boat,1-3-10,0283_eid_dnn_1-3-10_boat_10_n03344393_3337.png
clip,1,284,NaN,knife,bottle,128-3-10,0284_eid_dnn_128-3-10_bottle_10_n04579145_1660.png
clip,1,285,NaN,dog,dog,64-3-10,0285_eid_dnn_64-3-10_dog_10_n02091244_9305.png
clip,1,286,NaN,knife,chair,32-3-10,0286_eid_dnn_32-3-10_chair_10_n03376595_3912.png
clip,1,287,NaN,knife,bottle,64-3-10,0287_eid_dnn_64-3-10_bottle_10_n02823428_6793.png
clip,1,288,NaN,knife,dog,32-3-10,0288_eid_dnn_32-3-10_dog_10_n02093754_4949.png
clip,1,289,NaN,cat,dog,128-3-10,0289_eid_dnn_128-3-10_dog_10_n02105855_10394.png
clip,1,290,NaN,clock,clock,2-3-10,0290_eid_dnn_2-3-10_clock_10_n04548280_9533.png
clip,1,291,NaN,cat,cat,1-3-10,0291_eid_dnn_1-3-10_cat_10_n02125311_7527.png
clip,1,292,NaN,car,car,4-3-10,0292_eid_dnn_4-3-10_car_10_n03100240_4537.png
clip,1,293,NaN,cat,bicycle,8-3-10,0293_eid_dnn_8-3-10_bicycle_10_n03792782_11609.png
clip,1,294,NaN,knife,oven,128-3-10,0294_eid_dnn_128-3-10_oven_10_n04111531_6134.png
clip,1,295,NaN,knife,bottle,8-3-10,0295_eid_dnn_8-3-10_bottle_10_n04591713_715.png
clip,1,296,NaN,airplane,elephant,32-3-10,0296_eid_dnn_32-3-10_elephant_10_n02504458_7818.png
clip,1,297,NaN,cat,airplane,64-3-10,0297_eid_dnn_64-3-10_airplane_10_n02690373_7107.png
clip,1,298,NaN,knife,car,32-3-10,0298_eid_dnn_32-3-10_car_10_n04285008_8363.png
clip,1,299,NaN,clock,clock,4-3-10,0299_eid_dnn_4-3-10_clock_10_n04548280_4249.png
clip,1,300,NaN,cat,cat,128-3-10,0300_eid_dnn_128-3-10_cat_10_n02123597_7269.png
clip,1,301,NaN,bicycle,bicycle,1-3-10,0301_eid_dnn_1-3-10_bicycle_10_n03792782_4864.png
clip,1,302,NaN,bear,bear,2-3-10,0302_eid_dnn_2-3-10_bear_10_n02132136_8011.png
clip,1,303,NaN,cat,boat,128-3-10,0303_eid_dnn_128-3-10_boat_10_n02951358_4810.png
clip,1,304,NaN,knife,clock,128-3-10,0304_eid_dnn_128-3-10_clock_10_n03196217_5137.png
clip,1,305,NaN,bicycle,bicycle,2-3-10,0305_eid_dnn_2-3-10_bicycle_10_n02835271_158.png
clip,1,306,NaN,knife,bear,64-3-10,0306_eid_dnn_64-3-10_bear_10_n02132136_11217.png
clip,1,307,NaN,cat,dog,64-3-10,0307_eid_dnn_64-3-10_dog_10_n02092002_6122.png
clip,1,308,NaN,knife,chair,32-3-10,0308_eid_dnn_32-3-10_chair_10_n04429376_29223.png
clip,1,309,NaN,knife,bear,128-3-10,0309_eid_dnn_128-3-10_bear_10_n02133161_5723.png
clip,1,310,NaN,cat,dog,128-3-10,0310_eid_dnn_128-3-10_dog_10_n02100583_1343.png
clip,1,311,NaN,knife,boat,128-3-10,0311_eid_dnn_128-3-10_boat_10_n03344393_6352.png
clip,1,312,NaN,bird,bird,4-3-10,0312_eid_dnn_4-3-10_bird_10_n01560419_8247.png
clip,1,313,NaN,dog,dog,4-3-10,0313_eid_dnn_4-3-10_dog_10_n02105251_8210.png
clip,1,314,NaN,knife,oven,128-3-10,0314_eid_dnn_128-3-10_oven_10_n04111531_9702.png
clip,1,315,NaN,airplane,bear,8-3-10,0315_eid_dnn_8-3-10_bear_10_n02133161_12161.png
clip,1,316,NaN,cat,bear,8-3-10,0316_eid_dnn_8-3-10_bear_10_n02133161_13556.png
clip,1,317,NaN,oven,bear,128-3-10,0317_eid_dnn_128-3-10_bear_10_n02134084_635.png
clip,1,318,NaN,knife,chair,128-3-10,0318_eid_dnn_128-3-10_chair_10_n02791124_6956.png
clip,1,319,NaN,car,car,4-3-10,0319_eid_dnn_4-3-10_car_10_n02814533_18077.png
clip,1,320,NaN,dog,dog,2-3-10,0320_eid_dnn_2-3-10_dog_10_n02088364_11105.png
clip,1,321,NaN,bottle,airplane,64-3-10,0321_eid_dnn_64-3-10_airplane_10_n02690373_1053.png
clip,1,322,NaN,oven,car,16-3-10,0322_eid_dnn_16-3-10_car_10_n02814533_96407.png
clip,1,323,NaN,chair,chair,4-3-10,0323_eid_dnn_4-3-10_chair_10_n04099969_31891.png
clip,1,324,NaN,knife,bottle,16-3-10,0324_eid_dnn_16-3-10_bottle_10_n04557648_4470.png
clip,1,325,NaN,cat,clock,8-3-10,0325_eid_dnn_8-3-10_clock_10_n02708093_2588.png
clip,1,326,NaN,knife,elephant,128-3-10,0326_eid_dnn_128-3-10_elephant_10_n02504458_6696.png
clip,1,327,NaN,cat,elephant,32-3-10,0327_eid_dnn_32-3-10_elephant_10_n02504013_4071.png
clip,1,328,NaN,knife,keyboard,8-3-10,0328_eid_dnn_8-3-10_keyboard_10_n03085013_8339.png
clip,1,329,NaN,knife,elephant,64-3-10,0329_eid_dnn_64-3-10_elephant_10_n02504013_6976.png
clip,1,330,NaN,boat,boat,4-3-10,0330_eid_dnn_4-3-10_boat_10_n02951358_9146.png
clip,1,331,NaN,knife,boat,32-3-10,0331_eid_dnn_32-3-10_boat_10_n04273569_4087.png
clip,1,332,NaN,knife,oven,64-3-10,0332_eid_dnn_64-3-10_oven_10_n04111531_2922.png
clip,1,333,NaN,bear,bear,4-3-10,0333_eid_dnn_4-3-10_bear_10_n02133161_5325.png
clip,1,334,NaN,cat,bottle,64-3-10,0334_eid_dnn_64-3-10_bottle_10_n04557648_3109.png
clip,1,335,NaN,oven,oven,1-3-10,0335_eid_dnn_1-3-10_oven_10_n04111531_15912.png
clip,1,336,NaN,oven,truck,16-3-10,0336_eid_dnn_16-3-10_truck_10_n03417042_17099.png
clip,1,337,NaN,car,car,2-3-10,0337_eid_dnn_2-3-10_car_10_n04285008_8641.png
clip,1,338,NaN,knife,keyboard,32-3-10,0338_eid_dnn_32-3-10_keyboard_10_n04505470_524.png
clip,1,339,NaN,elephant,bottle,8-3-10,0339_eid_dnn_8-3-10_bottle_10_n04557648_5935.png
clip,1,340,NaN,bottle,bottle,1-3-10,0340_eid_dnn_1-3-10_bottle_10_n04591713_3776.png
clip,1,341,NaN,truck,truck,2-3-10,0341_eid_dnn_2-3-10_truck_10_n03796401_3651.png
clip,1,342,NaN,knife,bicycle,128-3-10,0342_eid_dnn_128-3-10_bicycle_10_n03792782_15757.png
clip,1,343,NaN,oven,cat,32-3-10,0343_eid_dnn_32-3-10_cat_10_n02123597_8698.png
clip,1,344,NaN,boat,boat,1-3-10,0344_eid_dnn_1-3-10_boat_10_n03662601_273.png
clip,1,345,NaN,knife,knife,1-3-10,0345_eid_dnn_1-3-10_knife_10_n03041632_24376.png
clip,1,346,NaN,keyboard,keyboard,1-3-10,0346_eid_dnn_1-3-10_keyboard_10_n04505470_2608.png
clip,1,347,NaN,knife,boat,16-3-10,0347_eid_dnn_16-3-10_boat_10_n04273569_10665.png
clip,1,348,NaN,knife,bear,64-3-10,0348_eid_dnn_64-3-10_bear_10_n02133161_5267.png
clip,1,349,NaN,knife,bear,128-3-10,0349_eid_dnn_128-3-10_bear_10_n02133161_5020.png
clip,1,350,NaN,cat,knife,128-3-10,0350_eid_dnn_128-3-10_knife_10_n03041632_21723.png
clip,1,351,NaN,cat,boat,32-3-10,0351_eid_dnn_32-3-10_boat_10_n02951358_31101.png
clip,1,352,NaN,knife,dog,128-3-10,0352_eid_dnn_128-3-10_dog_10_n02102177_4180.png
clip,1,353,NaN,bottle,bottle,4-3-10,0353_eid_dnn_4-3-10_bottle_10_n04579145_4186.png
clip,1,354,NaN,cat,bicycle,64-3-10,0354_eid_dnn_64-3-10_bicycle_10_n03792782_2246.png
clip,1,355,NaN,dog,dog,1-3-10,0355_eid_dnn_1-3-10_dog_10_n02110958_1526.png
clip,1,356,NaN,knife,keyboard,128-3-10,0356_eid_dnn_128-3-10_keyboard_10_n04505470_255.png
clip,1,357,NaN,bear,elephant,4-3-10,0357_eid_dnn_4-3-10_elephant_10_n02504458_1933.png
clip,1,358,NaN,cat,cat,2-3-10,0358_eid_dnn_2-3-10_cat_10_n02123159_5749.png
clip,1,359,NaN,knife,airplane,128-3-10,0359_eid_dnn_128-3-10_airplane_10_n02690373_2967.png
clip,1,360,NaN,elephant,chair,8-3-10,0360_eid_dnn_8-3-10_chair_10_n04099969_72.png
clip,1,361,NaN,knife,cat,32-3-10,0361_eid_dnn_32-3-10_cat_10_n02123045_4089.png
clip,1,362,NaN,knife,bird,128-3-10,0362_eid_dnn_128-3-10_bird_10_n01616318_13293.png
clip,1,363,NaN,cat,cat,4-3-10,0363_eid_dnn_4-3-10_cat_10_n02124075_13719.png
clip,1,364,NaN,knife,oven,32-3-10,0364_eid_dnn_32-3-10_oven_10_n04111531_22466.png
clip,1,365,NaN,bottle,airplane,128-3-10,0365_eid_dnn_128-3-10_airplane_10_n02690373_2525.png
clip,1,366,NaN,cat,cat,1-3-10,0366_eid_dnn_1-3-10_cat_10_n02124075_5369.png
clip,1,367,NaN,knife,bird,64-3-10,0367_eid_dnn_64-3-10_bird_10_n01843065_4182.png
clip,1,368,NaN,truck,truck,2-3-10,0368_eid_dnn_2-3-10_truck_10_n03796401_6472.png
clip,1,369,NaN,knife,airplane,64-3-10,0369_eid_dnn_64-3-10_airplane_10_n02690373_3090.png
clip,1,370,NaN,knife,bear,64-3-10,0370_eid_dnn_64-3-10_bear_10_n02134418_2964.png
clip,1,371,NaN,knife,elephant,16-3-10,0371_eid_dnn_16-3-10_elephant_10_n02504013_6904.png
clip,1,372,NaN,knife,bottle,32-3-10,0372_eid_dnn_32-3-10_bottle_10_n02823428_13488.png
clip,1,373,NaN,car,car,1-3-10,0373_eid_dnn_1-3-10_car_10_n02814533_49499.png
clip,1,374,NaN,knife,clock,64-3-10,0374_eid_dnn_64-3-10_clock_10_n03196217_1000.png
clip,1,375,NaN,bear,boat,16-3-10,0375_eid_dnn_16-3-10_boat_10_n04612504_13446.png
clip,1,376,NaN,knife,cat,8-3-10,0376_eid_dnn_8-3-10_cat_10_n02123159_7239.png
clip,1,377,NaN,cat,airplane,8-3-10,0377_eid_dnn_8-3-10_airplane_10_n02690373_7499.png
clip,1,378,NaN,knife,dog,64-3-10,0378_eid_dnn_64-3-10_dog_10_n02100877_8862.png
clip,1,379,NaN,keyboard,keyboard,2-3-10,0379_eid_dnn_2-3-10_keyboard_10_n03085013_7152.png
clip,1,380,NaN,knife,bottle,32-3-10,0380_eid_dnn_32-3-10_bottle_10_n03937543_3344.png
clip,1,381,NaN,knife,bicycle,64-3-10,0381_eid_dnn_64-3-10_bicycle_10_n02835271_1721.png
clip,1,382,NaN,boat,boat,2-3-10,0382_eid_dnn_2-3-10_boat_10_n04273569_7039.png
clip,1,383,NaN,airplane,airplane,1-3-10,0383_eid_dnn_1-3-10_airplane_10_n02690373_5790.png
clip,1,384,NaN,bird,bird,2-3-10,0384_eid_dnn_2-3-10_bird_10_n02007558_4629.png
clip,1,385,NaN,airplane,airplane,8-3-10,0385_eid_dnn_8-3-10_airplane_10_n02690373_2313.png
clip,1,386,NaN,car,car,2-3-10,0386_eid_dnn_2-3-10_car_10_n02814533_65093.png
clip,1,387,NaN,bicycle,bicycle,2-3-10,0387_eid_dnn_2-3-10_bicycle_10_n03792782_4559.png
clip,1,388,NaN,oven,oven,2-3-10,0388_eid_dnn_2-3-10_oven_10_n04111531_16696.png
clip,1,389,NaN,airplane,boat,32-3-10,0389_eid_dnn_32-3-10_boat_10_n04273569_5593.png
clip,1,390,NaN,knife,bottle,128-3-10,0390_eid_dnn_128-3-10_bottle_10_n03937543_6624.png
clip,1,391,NaN,airplane,airplane,1-3-10,0391_eid_dnn_1-3-10_airplane_10_n02690373_12436.png
clip,1,392,NaN,bird,bird,2-3-10,0392_eid_dnn_2-3-10_bird_10_n01828970_6924.png
clip,1,393,NaN,airplane,airplane,4-3-10,0393_eid_dnn_4-3-10_airplane_10_n02690373_9605.png
clip,1,394,NaN,cat,truck,128-3-10,0394_eid_dnn_128-3-10_truck_10_n03796401_1335.png
clip,1,395,NaN,knife,chair,64-3-10,0395_eid_dnn_64-3-10_chair_10_n04429376_10476.png
clip,1,396,NaN,bottle,bottle,1-3-10,0396_eid_dnn_1-3-10_bottle_10_n04560804_32760.png
clip,1,397,NaN,airplane,airplane,32-3-10,0397_eid_dnn_32-3-10_airplane_10_n02690373_10817.png
clip,1,398,NaN,knife,car,32-3-10,0398_eid_dnn_32-3-10_car_10_n03100240_5946.png
clip,1,399,NaN,knife,clock,64-3-10,0399_eid_dnn_64-3-10_clock_10_n02708093_2875.png
clip,1,400,NaN,bear,bear,2-3-10,0400_eid_dnn_2-3-10_bear_10_n02133161_2456.png
clip,1,401,NaN,bear,bird,8-3-10,0401_eid_dnn_8-3-10_bird_10_n01855672_15317.png
clip,1,402,NaN,dog,dog,8-3-10,0402_eid_dnn_8-3-10_dog_10_n02098286_2242.png
clip,1,403,NaN,knife,knife,2-3-10,0403_eid_dnn_2-3-10_knife_10_n03041632_43289.png
clip,1,404,NaN,bottle,bottle,4-3-10,0404_eid_dnn_4-3-10_bottle_10_n02823428_4387.png
clip,1,405,NaN,knife,knife,64-3-10,0405_eid_dnn_64-3-10_knife_10_n03041632_13194.png
clip,1,406,NaN,airplane,airplane,8-3-10,0406_eid_dnn_8-3-10_airplane_10_n02690373_7465.png
clip,1,407,NaN,bird,bird,4-3-10,0407_eid_dnn_4-3-10_bird_10_n02018207_2282.png
clip,1,408,NaN,knife,chair,64-3-10,0408_eid_dnn_64-3-10_chair_10_n04099969_34351.png
clip,1,409,NaN,knife,bottle,64-3-10,0409_eid_dnn_64-3-10_bottle_10_n03937543_49.png
clip,1,410,NaN,bicycle,bicycle,8-3-10,0410_eid_dnn_8-3-10_bicycle_10_n03792782_9833.png
clip,1,411,NaN,car,clock,4-3-10,0411_eid_dnn_4-3-10_clock_10_n03196217_10384.png
clip,1,412,NaN,knife,truck,64-3-10,0412_eid_dnn_64-3-10_truck_10_n04467665_4492.png
clip,1,413,NaN,knife,bottle,128-3-10,0413_eid_dnn_128-3-10_bottle_10_n03983396_5148.png
clip,1,414,NaN,cat,clock,128-3-10,0414_eid_dnn_128-3-10_clock_10_n04548280_4364.png
clip,1,415,NaN,cat,cat,1-3-10,0415_eid_dnn_1-3-10_cat_10_n02123394_6792.png
clip,1,416,NaN,oven,oven,16-3-10,0416_eid_dnn_16-3-10_oven_10_n04111531_1298.png
clip,1,417,NaN,oven,clock,8-3-10,0417_eid_dnn_8-3-10_clock_10_n04548280_2334.png
clip,1,418,NaN,oven,car,32-3-10,0418_eid_dnn_32-3-10_car_10_n04285008_15570.png
clip,1,419,NaN,knife,dog,32-3-10,0419_eid_dnn_32-3-10_dog_10_n02087394_7569.png
clip,1,420,NaN,oven,clock,32-3-10,0420_eid_dnn_32-3-10_clock_10_n03196217_11445.png
clip,1,421,NaN,knife,chair,32-3-10,0421_eid_dnn_32-3-10_chair_10_n04099969_3095.png
clip,1,422,NaN,dog,bird,64-3-10,0422_eid_dnn_64-3-10_bird_10_n01601694_935.png
clip,1,423,NaN,bird,bird,2-3-10,0423_eid_dnn_2-3-10_bird_10_n01592084_3570.png
clip,1,424,NaN,cat,dog,64-3-10,0424_eid_dnn_64-3-10_dog_10_n02090379_605.png
clip,1,425,NaN,airplane,airplane,1-3-10,0425_eid_dnn_1-3-10_airplane_10_n02690373_3912.png
clip,1,426,NaN,knife,oven,128-3-10,0426_eid_dnn_128-3-10_oven_10_n04111531_986.png
clip,1,427,NaN,cat,knife,32-3-10,0427_eid_dnn_32-3-10_knife_10_n03041632_23736.png
clip,1,428,NaN,knife,clock,4-3-10,0428_eid_dnn_4-3-10_clock_10_n04548280_10686.png
clip,1,429,NaN,knife,oven,32-3-10,0429_eid_dnn_32-3-10_oven_10_n04111531_21460.png
clip,1,430,NaN,knife,bottle,32-3-10,0430_eid_dnn_32-3-10_bottle_10_n04557648_3675.png
clip,1,431,NaN,knife,chair,8-3-10,0431_eid_dnn_8-3-10_chair_10_n02791124_495.png
clip,1,432,NaN,cat,chair,128-3-10,0432_eid_dnn_128-3-10_chair_10_n04429376_9165.png
clip,1,433,NaN,clock,clock,1-3-10,0433_eid_dnn_1-3-10_clock_10_n04548280_2937.png
clip,1,434,NaN,knife,bear,32-3-10,0434_eid_dnn_32-3-10_bear_10_n02134418_5849.png
clip,1,435,NaN,knife,bottle,128-3-10,0435_eid_dnn_128-3-10_bottle_10_n04560804_2521.png
clip,1,436,NaN,car,car,8-3-10,0436_eid_dnn_8-3-10_car_10_n04285008_11600.png
clip,1,437,NaN,knife,knife,2-3-10,0437_eid_dnn_2-3-10_knife_10_n03041632_79317.png
clip,1,438,NaN,knife,truck,32-3-10,0438_eid_dnn_32-3-10_truck_10_n03417042_6467.png
clip,1,439,NaN,knife,airplane,64-3-10,0439_eid_dnn_64-3-10_airplane_10_n02690373_303.png
clip,1,440,NaN,bicycle,chair,64-3-10,0440_eid_dnn_64-3-10_chair_10_n04099969_2354.png
clip,1,441,NaN,cat,clock,128-3-10,0441_eid_dnn_128-3-10_clock_10_n04548280_377.png
clip,1,442,NaN,knife,bicycle,32-3-10,0442_eid_dnn_32-3-10_bicycle_10_n03792782_11597.png
clip,1,443,NaN,bottle,bottle,2-3-10,0443_eid_dnn_2-3-10_bottle_10_n04579145_215.png
clip,1,444,NaN,car,car,4-3-10,0444_eid_dnn_4-3-10_car_10_n02814533_95669.png
clip,1,445,NaN,knife,chair,32-3-10,0445_eid_dnn_32-3-10_chair_10_n04429376_51025.png
clip,1,446,NaN,cat,cat,4-3-10,0446_eid_dnn_4-3-10_cat_10_n02123045_2757.png
clip,1,447,NaN,bottle,bottle,4-3-10,0447_eid_dnn_4-3-10_bottle_10_n03937543_2135.png
clip,1,448,NaN,bird,bird,2-3-10,0448_eid_dnn_2-3-10_bird_10_n01855032_7457.png
clip,1,449,NaN,knife,car,16-3-10,0449_eid_dnn_16-3-10_car_10_n02814533_24935.png
clip,1,450,NaN,keyboard,keyboard,4-3-10,0450_eid_dnn_4-3-10_keyboard_10_n04505470_1371.png
clip,1,451,NaN,knife,dog,16-3-10,0451_eid_dnn_16-3-10_dog_10_n02099267_2379.png
clip,1,452,NaN,cat,cat,8-3-10,0452_eid_dnn_8-3-10_cat_10_n02123394_8009.png
clip,1,453,NaN,keyboard,keyboard,2-3-10,0453_eid_dnn_2-3-10_keyboard_10_n03085013_29042.png
clip,1,454,NaN,cat,airplane,128-3-10,0454_eid_dnn_128-3-10_airplane_10_n02690373_2131.png
clip,1,455,NaN,car,car,8-3-10,0455_eid_dnn_8-3-10_car_10_n03100240_327.png
clip,1,456,NaN,elephant,elephant,2-3-10,0456_eid_dnn_2-3-10_elephant_10_n02504458_4163.png
clip,1,457,NaN,knife,knife,1-3-10,0457_eid_dnn_1-3-10_knife_10_n03041632_9635.png
clip,1,458,NaN,oven,airplane,16-3-10,0458_eid_dnn_16-3-10_airplane_10_n02690373_1044.png
clip,1,459,NaN,bear,bottle,16-3-10,0459_eid_dnn_16-3-10_bottle_10_n04560804_5441.png
clip,1,460,NaN,cat,cat,8-3-10,0460_eid_dnn_8-3-10_cat_10_n02123159_988.png
clip,1,461,NaN,knife,bird,64-3-10,0461_eid_dnn_64-3-10_bird_10_n01843383_4667.png
clip,1,462,NaN,airplane,airplane,2-3-10,0462_eid_dnn_2-3-10_airplane_10_n02690373_6978.png
clip,1,463,NaN,knife,chair,128-3-10,0463_eid_dnn_128-3-10_chair_10_n04099969_5901.png
clip,1,464,NaN,elephant,truck,8-3-10,0464_eid_dnn_8-3-10_truck_10_n03417042_29849.png
clip,1,465,NaN,airplane,airplane,1-3-10,0465_eid_dnn_1-3-10_airplane_10_n02690373_427.png
clip,1,466,NaN,bottle,bottle,4-3-10,0466_eid_dnn_4-3-10_bottle_10_n03983396_2305.png
clip,1,467,NaN,cat,oven,64-3-10,0467_eid_dnn_64-3-10_oven_10_n04111531_15296.png
clip,1,468,NaN,cat,cat,4-3-10,0468_eid_dnn_4-3-10_cat_10_n02123159_6728.png
clip,1,469,NaN,elephant,elephant,4-3-10,0469_eid_dnn_4-3-10_elephant_10_n02504458_12449.png
clip,1,470,NaN,knife,elephant,128-3-10,0470_eid_dnn_128-3-10_elephant_10_n02504458_12165.png
clip,1,471,NaN,boat,airplane,8-3-10,0471_eid_dnn_8-3-10_airplane_10_n02690373_5010.png
clip,1,472,NaN,cat,dog,64-3-10,0472_eid_dnn_64-3-10_dog_10_n02100236_4549.png
clip,1,473,NaN,boat,boat,4-3-10,0473_eid_dnn_4-3-10_boat_10_n03344393_4289.png
clip,1,474,NaN,cat,chair,64-3-10,0474_eid_dnn_64-3-10_chair_10_n04099969_48169.png
clip,1,475,NaN,airplane,airplane,4-3-10,0475_eid_dnn_4-3-10_airplane_10_n02690373_1996.png
clip,1,476,NaN,knife,truck,128-3-10,0476_eid_dnn_128-3-10_truck_10_n03417042_28078.png
clip,1,477,NaN,truck,truck,8-3-10,0477_eid_dnn_8-3-10_truck_10_n04467665_3098.png
clip,1,478,NaN,elephant,elephant,4-3-10,0478_eid_dnn_4-3-10_elephant_10_n02504458_847.png
clip,1,479,NaN,bicycle,bicycle,8-3-10,0479_eid_dnn_8-3-10_bicycle_10_n03792782_5880.png
clip,1,480,NaN,knife,bear,128-3-10,0480_eid_dnn_128-3-10_bear_10_n02132136_30976.png
clip,1,481,NaN,clock,chair,64-3-10,0481_eid_dnn_64-3-10_chair_10_n02791124_2057.png
clip,1,482,NaN,knife,keyboard,128-3-10,0482_eid_dnn_128-3-10_keyboard_10_n03085013_7286.png
clip,1,483,NaN,knife,clock,32-3-10,0483_eid_dnn_32-3-10_clock_10_n04548280_1323.png
clip,1,484,NaN,knife,bottle,128-3-10,0484_eid_dnn_128-3-10_bottle_10_n03983396_18508.png
clip,1,485,NaN,bear,bottle,8-3-10,0485_eid_dnn_8-3-10_bottle_10_n03983396_3880.png
clip,1,486,NaN,knife,dog,128-3-10,0486_eid_dnn_128-3-10_dog_10_n02095570_601.png
clip,1,487,NaN,cat,bird,32-3-10,0487_eid_dnn_32-3-10_bird_10_n01797886_21510.png
clip,1,488,NaN,chair,chair,1-3-10,0488_eid_dnn_1-3-10_chair_10_n04099969_9425.png
clip,1,489,NaN,bear,keyboard,8-3-10,0489_eid_dnn_8-3-10_keyboard_10_n04505470_4228.png
clip,1,490,NaN,knife,elephant,32-3-10,0490_eid_dnn_32-3-10_elephant_10_n02504013_7553.png
clip,1,491,NaN,knife,cat,64-3-10,0491_eid_dnn_64-3-10_cat_10_n02125311_8090.png
clip,1,492,NaN,knife,keyboard,8-3-10,0492_eid_dnn_8-3-10_keyboard_10_n04505470_10041.png
clip,1,493,NaN,bicycle,bicycle,4-3-10,0493_eid_dnn_4-3-10_bicycle_10_n03792782_1833.png
clip,1,494,NaN,knife,bottle,4-3-10,0494_eid_dnn_4-3-10_bottle_10_n04557648_11642.png
clip,1,495,NaN,knife,car,128-3-10,0495_eid_dnn_128-3-10_car_10_n03100240_7219.png
clip,1,496,NaN,truck,truck,1-3-10,0496_eid_dnn_1-3-10_truck_10_n03796401_9642.png
clip,1,497,NaN,cat,cat,1-3-10,0497_eid_dnn_1-3-10_cat_10_n02125311_13348.png
clip,1,498,NaN,knife,bottle,128-3-10,0498_eid_dnn_128-3-10_bottle_10_n04560804_5540.png
clip,1,499,NaN,bottle,bottle,4-3-10,0499_eid_dnn_4-3-10_bottle_10_n03983396_9604.png
clip,1,500,NaN,knife,truck,32-3-10,0500_eid_dnn_32-3-10_truck_10_n03417042_5180.png
clip,1,501,NaN,knife,dog,16-3-10,0501_eid_dnn_16-3-10_dog_10_n02109525_3364.png
clip,1,502,NaN,clock,clock,2-3-10,0502_eid_dnn_2-3-10_clock_10_n04548280_353.png
clip,1,503,NaN,dog,dog,1-3-10,0503_eid_dnn_1-3-10_dog_10_n02111129_4423.png
clip,1,504,NaN,bear,dog,16-3-10,0504_eid_dnn_16-3-10_dog_10_n02108000_1538.png
clip,1,505,NaN,knife,keyboard,16-3-10,0505_eid_dnn_16-3-10_keyboard_10_n03085013_3439.png
clip,1,506,NaN,truck,truck,8-3-10,0506_eid_dnn_8-3-10_truck_10_n03417042_4016.png
clip,1,507,NaN,knife,knife,32-3-10,0507_eid_dnn_32-3-10_knife_10_n03041632_39883.png
clip,1,508,NaN,knife,bear,16-3-10,0508_eid_dnn_16-3-10_bear_10_n02132136_21181.png
clip,1,509,NaN,elephant,elephant,8-3-10,0509_eid_dnn_8-3-10_elephant_10_n02504013_718.png
clip,1,510,NaN,oven,oven,2-3-10,0510_eid_dnn_2-3-10_oven_10_n04111531_4146.png
clip,1,511,NaN,bird,airplane,8-3-10,0511_eid_dnn_8-3-10_airplane_10_n02690373_10769.png
clip,1,512,NaN,knife,dog,16-3-10,0512_eid_dnn_16-3-10_dog_10_n02109525_4516.png
clip,1,513,NaN,boat,boat,4-3-10,0513_eid_dnn_4-3-10_boat_10_n02951358_12333.png
clip,1,514,NaN,knife,chair,8-3-10,0514_eid_dnn_8-3-10_chair_10_n04099969_20421.png
clip,1,515,NaN,knife,knife,4-3-10,0515_eid_dnn_4-3-10_knife_10_n03041632_21165.png
clip,1,516,NaN,bicycle,bicycle,1-3-10,0516_eid_dnn_1-3-10_bicycle_10_n02835271_21439.png
clip,1,517,NaN,boat,boat,1-3-10,0517_eid_dnn_1-3-10_boat_10_n04273569_24526.png
clip,1,518,NaN,knife,bottle,32-3-10,0518_eid_dnn_32-3-10_bottle_10_n04579145_2276.png
clip,1,519,NaN,boat,bear,8-3-10,0519_eid_dnn_8-3-10_bear_10_n02134418_1642.png
clip,1,520,NaN,bicycle,bicycle,1-3-10,0520_eid_dnn_1-3-10_bicycle_10_n02835271_15468.png
clip,1,521,NaN,bottle,keyboard,64-3-10,0521_eid_dnn_64-3-10_keyboard_10_n03085013_26532.png
clip,1,522,NaN,cat,clock,64-3-10,0522_eid_dnn_64-3-10_clock_10_n03196217_6809.png
clip,1,523,NaN,knife,bear,64-3-10,0523_eid_dnn_64-3-10_bear_10_n02134418_4384.png
clip,1,524,NaN,dog,dog,4-3-10,0524_eid_dnn_4-3-10_dog_10_n02086240_1183.png
clip,1,525,NaN,chair,chair,1-3-10,0525_eid_dnn_1-3-10_chair_10_n04429376_294.png
clip,1,526,NaN,clock,clock,64-3-10,0526_eid_dnn_64-3-10_clock_10_n02708093_4893.png
clip,1,527,NaN,knife,keyboard,64-3-10,0527_eid_dnn_64-3-10_keyboard_10_n03085013_3098.png
clip,1,528,NaN,knife,cat,16-3-10,0528_eid_dnn_16-3-10_cat_10_n02125311_22073.png
clip,1,529,NaN,bird,bird,2-3-10,0529_eid_dnn_2-3-10_bird_10_n01558993_869.png
clip,1,530,NaN,bird,bird,1-3-10,0530_eid_dnn_1-3-10_bird_10_n01817953_8025.png
clip,1,531,NaN,chair,chair,2-3-10,0531_eid_dnn_2-3-10_chair_10_n04099969_24235.png
clip,1,532,NaN,cat,knife,128-3-10,0532_eid_dnn_128-3-10_knife_10_n03041632_1201.png
clip,1,533,NaN,bicycle,bicycle,4-3-10,0533_eid_dnn_4-3-10_bicycle_10_n03792782_16212.png
clip,1,534,NaN,knife,oven,4-3-10,0534_eid_dnn_4-3-10_oven_10_n04111531_11655.png
clip,1,535,NaN,cat,bicycle,16-3-10,0535_eid_dnn_16-3-10_bicycle_10_n02835271_5152.png
clip,1,536,NaN,bear,bear,16-3-10,0536_eid_dnn_16-3-10_bear_10_n02132136_19290.png
clip,1,537,NaN,oven,car,32-3-10,0537_eid_dnn_32-3-10_car_10_n03100240_6103.png
clip,1,538,NaN,airplane,airplane,16-3-10,0538_eid_dnn_16-3-10_airplane_10_n02690373_5714.png
clip,1,539,NaN,chair,chair,1-3-10,0539_eid_dnn_1-3-10_chair_10_n04429376_2915.png
clip,1,540,NaN,knife,clock,64-3-10,0540_eid_dnn_64-3-10_clock_10_n02708093_7827.png
clip,1,541,NaN,truck,truck,2-3-10,0541_eid_dnn_2-3-10_truck_10_n03417042_6247.png
clip,1,542,NaN,knife,elephant,32-3-10,0542_eid_dnn_32-3-10_elephant_10_n02504013_947.png
clip,1,543,NaN,truck,truck,1-3-10,0543_eid_dnn_1-3-10_truck_10_n03417042_2074.png
clip,1,544,NaN,boat,airplane,8-3-10,0544_eid_dnn_8-3-10_airplane_10_n02690373_5221.png
clip,1,545,NaN,knife,oven,4-3-10,0545_eid_dnn_4-3-10_oven_10_n04111531_6629.png
clip,1,546,NaN,knife,knife,1-3-10,0546_eid_dnn_1-3-10_knife_10_n03041632_36277.png
clip,1,547,NaN,knife,cat,64-3-10,0547_eid_dnn_64-3-10_cat_10_n02123597_4700.png
clip,1,548,NaN,cat,airplane,16-3-10,0548_eid_dnn_16-3-10_airplane_10_n02690373_20042.png
clip,1,549,NaN,cat,chair,32-3-10,0549_eid_dnn_32-3-10_chair_10_n02791124_15539.png
clip,1,550,NaN,cat,cat,1-3-10,0550_eid_dnn_1-3-10_cat_10_n02123394_5700.png
clip,1,551,NaN,car,car,4-3-10,0551_eid_dnn_4-3-10_car_10_n04285008_13595.png
clip,1,552,NaN,knife,chair,8-3-10,0552_eid_dnn_8-3-10_chair_10_n02791124_2282.png
clip,1,553,NaN,dog,dog,2-3-10,0553_eid_dnn_2-3-10_dog_10_n02100877_3973.png
clip,1,554,NaN,knife,truck,64-3-10,0554_eid_dnn_64-3-10_truck_10_n03417042_12297.png
clip,1,555,NaN,bear,elephant,8-3-10,0555_eid_dnn_8-3-10_elephant_10_n02504013_6303.png
clip,1,556,NaN,car,car,8-3-10,0556_eid_dnn_8-3-10_car_10_n02814533_43990.png
clip,1,557,NaN,knife,truck,16-3-10,0557_eid_dnn_16-3-10_truck_10_n04467665_58456.png
clip,1,558,NaN,dog,dog,4-3-10,0558_eid_dnn_4-3-10_dog_10_n02098105_526.png
clip,1,559,NaN,bird,bird,2-3-10,0559_eid_dnn_2-3-10_bird_10_n02037110_27907.png
clip,1,560,NaN,oven,keyboard,64-3-10,0560_eid_dnn_64-3-10_keyboard_10_n03085013_20849.png
clip,1,561,NaN,chair,chair,1-3-10,0561_eid_dnn_1-3-10_chair_10_n03376595_12524.png
clip,1,562,NaN,cat,bird,64-3-10,0562_eid_dnn_64-3-10_bird_10_n02056570_27055.png
clip,1,563,NaN,knife,truck,64-3-10,0563_eid_dnn_64-3-10_truck_10_n03417042_4934.png
clip,1,564,NaN,boat,knife,16-3-10,0564_eid_dnn_16-3-10_knife_10_n03041632_3210.png
clip,1,565,NaN,dog,dog,8-3-10,0565_eid_dnn_8-3-10_dog_10_n02096585_2118.png
clip,1,566,NaN,keyboard,keyboard,1-3-10,0566_eid_dnn_1-3-10_keyboard_10_n03085013_3539.png
clip,1,567,NaN,truck,truck,4-3-10,0567_eid_dnn_4-3-10_truck_10_n03417042_17215.png
clip,1,568,NaN,knife,cat,8-3-10,0568_eid_dnn_8-3-10_cat_10_n02123045_12657.png
clip,1,569,NaN,knife,knife,64-3-10,0569_eid_dnn_64-3-10_knife_10_n03041632_20576.png
clip,1,570,NaN,truck,truck,8-3-10,0570_eid_dnn_8-3-10_truck_10_n04467665_23905.png
clip,1,571,NaN,knife,oven,128-3-10,0571_eid_dnn_128-3-10_oven_10_n04111531_9427.png
clip,1,572,NaN,knife,oven,16-3-10,0572_eid_dnn_16-3-10_oven_10_n04111531_14329.png
clip,1,573,NaN,knife,bird,64-3-10,0573_eid_dnn_64-3-10_bird_10_n01614925_19422.png
clip,1,574,NaN,cat,bottle,128-3-10,0574_eid_dnn_128-3-10_bottle_10_n02823428_1154.png
clip,1,575,NaN,bear,dog,4-3-10,0575_eid_dnn_4-3-10_dog_10_n02093859_4797.png
clip,1,576,NaN,airplane,airplane,1-3-10,0576_eid_dnn_1-3-10_airplane_10_n02690373_2632.png
clip,1,577,NaN,knife,keyboard,32-3-10,0577_eid_dnn_32-3-10_keyboard_10_n03085013_15825.png
clip,1,578,NaN,truck,car,4-3-10,0578_eid_dnn_4-3-10_car_10_n02814533_52674.png
clip,1,579,NaN,airplane,truck,32-3-10,0579_eid_dnn_32-3-10_truck_10_n04467665_32937.png
clip,1,580,NaN,bird,bird,4-3-10,0580_eid_dnn_4-3-10_bird_10_n01537544_20.png
clip,1,581,NaN,airplane,clock,8-3-10,0581_eid_dnn_8-3-10_clock_10_n03196217_564.png
clip,1,582,NaN,knife,knife,1-3-10,0582_eid_dnn_1-3-10_knife_10_n03041632_76163.png
clip,1,583,NaN,oven,airplane,32-3-10,0583_eid_dnn_32-3-10_airplane_10_n02690373_8559.png
clip,1,584,NaN,keyboard,keyboard,2-3-10,0584_eid_dnn_2-3-10_keyboard_10_n04505470_3941.png
clip,1,585,NaN,clock,oven,64-3-10,0585_eid_dnn_64-3-10_oven_10_n04111531_9910.png
clip,1,586,NaN,cat,bottle,128-3-10,0586_eid_dnn_128-3-10_bottle_10_n03937543_7191.png
clip,1,587,NaN,boat,boat,4-3-10,0587_eid_dnn_4-3-10_boat_10_n03662601_14818.png
clip,1,588,NaN,bear,boat,128-3-10,0588_eid_dnn_128-3-10_boat_10_n02951358_588.png
clip,1,589,NaN,bear,bear,1-3-10,0589_eid_dnn_1-3-10_bear_10_n02133161_2851.png
clip,1,590,NaN,chair,chair,2-3-10,0590_eid_dnn_2-3-10_chair_10_n03376595_16212.png
clip,1,591,NaN,boat,boat,8-3-10,0591_eid_dnn_8-3-10_boat_10_n04612504_1613.png
clip,1,592,NaN,oven,chair,128-3-10,0592_eid_dnn_128-3-10_chair_10_n02791124_3198.png
clip,1,593,NaN,boat,knife,16-3-10,0593_eid_dnn_16-3-10_knife_10_n03041632_32785.png
clip,1,594,NaN,knife,oven,32-3-10,0594_eid_dnn_32-3-10_oven_10_n04111531_22797.png
clip,1,595,NaN,knife,oven,128-3-10,0595_eid_dnn_128-3-10_oven_10_n04111531_5077.png
clip,1,596,NaN,bear,bear,1-3-10,0596_eid_dnn_1-3-10_bear_10_n02134418_2569.png
clip,1,597,NaN,car,car,1-3-10,0597_eid_dnn_1-3-10_car_10_n03100240_15284.png
clip,1,598,NaN,keyboard,keyboard,2-3-10,0598_eid_dnn_2-3-10_keyboard_10_n04505470_4791.png
clip,1,599,NaN,knife,bicycle,64-3-10,0599_eid_dnn_64-3-10_bicycle_10_n03792782_551.png
clip,1,600,NaN,cat,bottle,1-3-10,0600_eid_dnn_1-3-10_bottle_10_n03937543_2999.png
clip,1,601,NaN,boat,airplane,16-3-10,0601_eid_dnn_16-3-10_airplane_10_n02690373_7279.png
clip,1,602,NaN,knife,airplane,128-3-10,0602_eid_dnn_128-3-10_airplane_10_n02690373_9312.png
clip,1,603,NaN,oven,chair,8-3-10,0603_eid_dnn_8-3-10_chair_10_n04429376_2591.png
clip,1,604,NaN,cat,dog,32-3-10,0604_eid_dnn_32-3-10_dog_10_n02109525_175.png
clip,1,605,NaN,dog,dog,1-3-10,0605_eid_dnn_1-3-10_dog_10_n02106166_476.png
clip,1,606,NaN,boat,boat,1-3-10,0606_eid_dnn_1-3-10_boat_10_n02951358_1136.png
clip,1,607,NaN,boat,knife,2-3-10,0607_eid_dnn_2-3-10_knife_10_n03041632_3079.png
clip,1,608,NaN,cat,truck,128-3-10,0608_eid_dnn_128-3-10_truck_10_n03417042_18603.png
clip,1,609,NaN,knife,cat,128-3-10,0609_eid_dnn_128-3-10_cat_10_n02123045_9492.png
clip,1,610,NaN,cat,boat,64-3-10,0610_eid_dnn_64-3-10_boat_10_n03344393_8642.png
clip,1,611,NaN,knife,bird,32-3-10,0611_eid_dnn_32-3-10_bird_10_n02009229_6228.png
clip,1,612,NaN,knife,chair,8-3-10,0612_eid_dnn_8-3-10_chair_10_n02791124_13704.png
clip,1,613,NaN,cat,knife,64-3-10,0613_eid_dnn_64-3-10_knife_10_n03041632_28129.png
clip,1,614,NaN,cat,keyboard,32-3-10,0614_eid_dnn_32-3-10_keyboard_10_n04505470_8244.png
clip,1,615,NaN,knife,knife,4-3-10,0615_eid_dnn_4-3-10_knife_10_n03041632_30196.png
clip,1,616,NaN,oven,keyboard,32-3-10,0616_eid_dnn_32-3-10_keyboard_10_n04505470_5109.png
clip,1,617,NaN,knife,knife,8-3-10,0617_eid_dnn_8-3-10_knife_10_n03041632_44738.png
clip,1,618,NaN,car,car,1-3-10,0618_eid_dnn_1-3-10_car_10_n02814533_4726.png
clip,1,619,NaN,elephant,elephant,2-3-10,0619_eid_dnn_2-3-10_elephant_10_n02504458_13583.png
clip,1,620,NaN,boat,boat,1-3-10,0620_eid_dnn_1-3-10_boat_10_n03662601_26396.png
clip,1,621,NaN,boat,boat,4-3-10,0621_eid_dnn_4-3-10_boat_10_n04273569_4518.png
clip,1,622,NaN,knife,bird,16-3-10,0622_eid_dnn_16-3-10_bird_10_n01843383_3274.png
clip,1,623,NaN,oven,clock,16-3-10,0623_eid_dnn_16-3-10_clock_10_n02708093_3621.png
clip,1,624,NaN,bicycle,boat,16-3-10,0624_eid_dnn_16-3-10_boat_10_n02951358_1360.png
clip,1,625,NaN,keyboard,keyboard,4-3-10,0625_eid_dnn_4-3-10_keyboard_10_n03085013_5819.png
clip,1,626,NaN,knife,dog,64-3-10,0626_eid_dnn_64-3-10_dog_10_n02087046_15420.png
clip,1,627,NaN,bottle,bottle,1-3-10,0627_eid_dnn_1-3-10_bottle_10_n03937543_1358.png
clip,1,628,NaN,knife,bottle,16-3-10,0628_eid_dnn_16-3-10_bottle_10_n02823428_12643.png
clip,1,629,NaN,keyboard,keyboard,1-3-10,0629_eid_dnn_1-3-10_keyboard_10_n04505470_1245.png
clip,1,630,NaN,bear,car,16-3-10,0630_eid_dnn_16-3-10_car_10_n02814533_47325.png
clip,1,631,NaN,knife,car,32-3-10,0631_eid_dnn_32-3-10_car_10_n04285008_4331.png
clip,1,632,NaN,elephant,elephant,1-3-10,0632_eid_dnn_1-3-10_elephant_10_n02504013_2984.png
clip,1,633,NaN,cat,cat,2-3-10,0633_eid_dnn_2-3-10_cat_10_n02124075_13278.png
clip,1,634,NaN,cat,truck,16-3-10,0634_eid_dnn_16-3-10_truck_10_n04467665_8189.png
clip,1,635,NaN,bottle,bottle,2-3-10,0635_eid_dnn_2-3-10_bottle_10_n02823428_13931.png
clip,1,636,NaN,knife,cat,128-3-10,0636_eid_dnn_128-3-10_cat_10_n02124075_12350.png
clip,1,637,NaN,bear,elephant,16-3-10,0637_eid_dnn_16-3-10_elephant_10_n02504013_4590.png
clip,1,638,NaN,knife,bird,32-3-10,0638_eid_dnn_32-3-10_bird_10_n01855672_6144.png
clip,1,639,NaN,knife,bear,128-3-10,0639_eid_dnn_128-3-10_bear_10_n02132136_15262.png
clip,1,640,NaN,cat,cat,2-3-10,0640_eid_dnn_2-3-10_cat_10_n02125311_15293.png
clip,1,641,NaN,bicycle,bicycle,4-3-10,0641_eid_dnn_4-3-10_bicycle_10_n02835271_1487.png
clip,1,642,NaN,dog,dog,4-3-10,0642_eid_dnn_4-3-10_dog_10_n02107574_5896.png
clip,1,643,NaN,keyboard,keyboard,4-3-10,0643_eid_dnn_4-3-10_keyboard_10_n03085013_15365.png
clip,1,644,NaN,oven,truck,32-3-10,0644_eid_dnn_32-3-10_truck_10_n04467665_67927.png
clip,1,645,NaN,bottle,bottle,2-3-10,0645_eid_dnn_2-3-10_bottle_10_n04591713_3085.png
clip,1,646,NaN,clock,clock,4-3-10,0646_eid_dnn_4-3-10_clock_10_n04548280_5096.png
clip,1,647,NaN,dog,cat,16-3-10,0647_eid_dnn_16-3-10_cat_10_n02123159_13611.png
clip,1,648,NaN,cat,oven,128-3-10,0648_eid_dnn_128-3-10_oven_10_n04111531_15568.png
clip,1,649,NaN,knife,knife,32-3-10,0649_eid_dnn_32-3-10_knife_10_n03041632_8618.png
clip,1,650,NaN,knife,oven,4-3-10,0650_eid_dnn_4-3-10_oven_10_n04111531_6445.png
clip,1,651,NaN,knife,bicycle,128-3-10,0651_eid_dnn_128-3-10_bicycle_10_n03792782_70724.png
clip,1,652,NaN,bicycle,knife,32-3-10,0652_eid_dnn_32-3-10_knife_10_n03041632_45326.png
clip,1,653,NaN,knife,oven,32-3-10,0653_eid_dnn_32-3-10_oven_10_n04111531_7134.png
clip,1,654,NaN,knife,keyboard,64-3-10,0654_eid_dnn_64-3-10_keyboard_10_n03085013_23828.png
clip,1,655,NaN,bear,bear,2-3-10,0655_eid_dnn_2-3-10_bear_10_n02134084_7193.png
clip,1,656,NaN,boat,clock,8-3-10,0656_eid_dnn_8-3-10_clock_10_n02708093_1431.png
clip,1,657,NaN,bird,airplane,64-3-10,0657_eid_dnn_64-3-10_airplane_10_n02690373_4364.png
clip,1,658,NaN,knife,bottle,64-3-10,0658_eid_dnn_64-3-10_bottle_10_n02823428_12997.png
clip,1,659,NaN,elephant,boat,8-3-10,0659_eid_dnn_8-3-10_boat_10_n02951358_9837.png
clip,1,660,NaN,knife,elephant,64-3-10,0660_eid_dnn_64-3-10_elephant_10_n02504013_7746.png
clip,1,661,NaN,knife,cat,32-3-10,0661_eid_dnn_32-3-10_cat_10_n02123597_6548.png
clip,1,662,NaN,oven,knife,32-3-10,0662_eid_dnn_32-3-10_knife_10_n03041632_30286.png
clip,1,663,NaN,bear,bear,16-3-10,0663_eid_dnn_16-3-10_bear_10_n02132136_33437.png
clip,1,664,NaN,bear,bear,2-3-10,0664_eid_dnn_2-3-10_bear_10_n02134084_14360.png
clip,1,665,NaN,knife,bottle,32-3-10,0665_eid_dnn_32-3-10_bottle_10_n02823428_13280.png
clip,1,666,NaN,cat,boat,32-3-10,0666_eid_dnn_32-3-10_boat_10_n03344393_2142.png
clip,1,667,NaN,knife,bottle,16-3-10,0667_eid_dnn_16-3-10_bottle_10_n04557648_9415.png
clip,1,668,NaN,airplane,airplane,32-3-10,0668_eid_dnn_32-3-10_airplane_10_n02690373_2564.png
clip,1,669,NaN,knife,dog,128-3-10,0669_eid_dnn_128-3-10_dog_10_n02095889_1087.png
clip,1,670,NaN,oven,dog,2-3-10,0670_eid_dnn_2-3-10_dog_10_n02092339_3615.png
clip,1,671,NaN,truck,truck,2-3-10,0671_eid_dnn_2-3-10_truck_10_n03417042_2978.png
clip,1,672,NaN,knife,bottle,32-3-10,0672_eid_dnn_32-3-10_bottle_10_n04557648_3768.png
clip,1,673,NaN,dog,boat,64-3-10,0673_eid_dnn_64-3-10_boat_10_n04273569_5901.png
clip,1,674,NaN,car,car,8-3-10,0674_eid_dnn_8-3-10_car_10_n02814533_3573.png
clip,1,675,NaN,truck,truck,4-3-10,0675_eid_dnn_4-3-10_truck_10_n04467665_1840.png
clip,1,676,NaN,bird,bird,8-3-10,0676_eid_dnn_8-3-10_bird_10_n02028035_7406.png
clip,1,677,NaN,knife,clock,16-3-10,0677_eid_dnn_16-3-10_clock_10_n04548280_575.png
clip,1,678,NaN,bottle,bottle,1-3-10,0678_eid_dnn_1-3-10_bottle_10_n04560804_9169.png
clip,1,679,NaN,cat,cat,2-3-10,0679_eid_dnn_2-3-10_cat_10_n02125311_22949.png
clip,1,680,NaN,elephant,elephant,8-3-10,0680_eid_dnn_8-3-10_elephant_10_n02504013_848.png
clip,1,681,NaN,knife,bicycle,16-3-10,0681_eid_dnn_16-3-10_bicycle_10_n02835271_1974.png
clip,1,682,NaN,oven,oven,4-3-10,0682_eid_dnn_4-3-10_oven_10_n04111531_6217.png
clip,1,683,NaN,elephant,elephant,2-3-10,0683_eid_dnn_2-3-10_elephant_10_n02504458_5882.png
clip,1,684,NaN,bird,bird,1-3-10,0684_eid_dnn_1-3-10_bird_10_n02011460_6726.png
clip,1,685,NaN,knife,bear,128-3-10,0685_eid_dnn_128-3-10_bear_10_n02133161_13089.png
clip,1,686,NaN,knife,bird,32-3-10,0686_eid_dnn_32-3-10_bird_10_n01795545_17639.png
clip,1,687,NaN,knife,car,128-3-10,0687_eid_dnn_128-3-10_car_10_n02814533_83588.png
clip,1,688,NaN,knife,oven,16-3-10,0688_eid_dnn_16-3-10_oven_10_n04111531_10064.png
clip,1,689,NaN,dog,dog,2-3-10,0689_eid_dnn_2-3-10_dog_10_n02113712_5246.png
clip,1,690,NaN,knife,cat,16-3-10,0690_eid_dnn_16-3-10_cat_10_n02125311_46738.png
clip,1,691,NaN,dog,dog,1-3-10,0691_eid_dnn_1-3-10_dog_10_n02100236_9311.png
clip,1,692,NaN,knife,elephant,128-3-10,0692_eid_dnn_128-3-10_elephant_10_n02504458_5844.png
clip,1,693,NaN,cat,bear,32-3-10,0693_eid_dnn_32-3-10_bear_10_n02132136_3378.png
clip,1,694,NaN,truck,truck,1-3-10,0694_eid_dnn_1-3-10_truck_10_n03417042_1263.png
clip,1,695,NaN,truck,truck,1-3-10,0695_eid_dnn_1-3-10_truck_10_n03417042_19596.png
clip,1,696,NaN,keyboard,keyboard,1-3-10,0696_eid_dnn_1-3-10_keyboard_10_n04505470_1351.png
clip,1,697,NaN,oven,oven,2-3-10,0697_eid_dnn_2-3-10_oven_10_n04111531_3902.png
clip,1,698,NaN,airplane,airplane,2-3-10,0698_eid_dnn_2-3-10_airplane_10_n02690373_19345.png
clip,1,699,NaN,clock,bottle,64-3-10,0699_eid_dnn_64-3-10_bottle_10_n03937543_4523.png
clip,1,700,NaN,knife,bicycle,64-3-10,0700_eid_dnn_64-3-10_bicycle_10_n02835271_22448.png
clip,1,701,NaN,bear,bear,1-3-10,0701_eid_dnn_1-3-10_bear_10_n02132136_11198.png
clip,1,702,NaN,bird,bird,8-3-10,0702_eid_dnn_8-3-10_bird_10_n01798484_3266.png
clip,1,703,NaN,knife,bird,128-3-10,0703_eid_dnn_128-3-10_bird_10_n02017213_15742.png
clip,1,704,NaN,knife,knife,4-3-10,0704_eid_dnn_4-3-10_knife_10_n03041632_15431.png
clip,1,705,NaN,oven,oven,1-3-10,0705_eid_dnn_1-3-10_oven_10_n04111531_5093.png
clip,1,706,NaN,knife,truck,32-3-10,0706_eid_dnn_32-3-10_truck_10_n03417042_11062.png
clip,1,707,NaN,dog,dog,2-3-10,0707_eid_dnn_2-3-10_dog_10_n02090721_2242.png
clip,1,708,NaN,knife,knife,64-3-10,0708_eid_dnn_64-3-10_knife_10_n03041632_18304.png
clip,1,709,NaN,bear,cat,8-3-10,0709_eid_dnn_8-3-10_cat_10_n02123597_10945.png
clip,1,710,NaN,knife,car,128-3-10,0710_eid_dnn_128-3-10_car_10_n03100240_6552.png
clip,1,711,NaN,knife,airplane,64-3-10,0711_eid_dnn_64-3-10_airplane_10_n02690373_2109.png
clip,1,712,NaN,chair,chair,2-3-10,0712_eid_dnn_2-3-10_chair_10_n03376595_2512.png
clip,1,713,NaN,bottle,bottle,2-3-10,0713_eid_dnn_2-3-10_bottle_10_n03937543_4964.png
clip,1,714,NaN,keyboard,keyboard,2-3-10,0714_eid_dnn_2-3-10_keyboard_10_n03085013_19416.png
clip,1,715,NaN,cat,truck,64-3-10,0715_eid_dnn_64-3-10_truck_10_n04467665_64792.png
clip,1,716,NaN,knife,knife,2-3-10,0716_eid_dnn_2-3-10_knife_10_n03041632_3781.png
clip,1,717,NaN,knife,keyboard,64-3-10,0717_eid_dnn_64-3-10_keyboard_10_n03085013_16057.png
clip,1,718,NaN,knife,elephant,64-3-10,0718_eid_dnn_64-3-10_elephant_10_n02504013_6823.png
clip,1,719,NaN,knife,bird,128-3-10,0719_eid_dnn_128-3-10_bird_10_n02056570_1441.png
clip,1,720,NaN,knife,knife,2-3-10,0720_eid_dnn_2-3-10_knife_10_n03041632_91582.png
clip,1,721,NaN,boat,boat,8-3-10,0721_eid_dnn_8-3-10_boat_10_n02951358_4650.png
clip,1,722,NaN,chair,chair,1-3-10,0722_eid_dnn_1-3-10_chair_10_n02791124_8788.png
clip,1,723,NaN,truck,truck,4-3-10,0723_eid_dnn_4-3-10_truck_10_n03417042_21758.png
clip,1,724,NaN,knife,elephant,64-3-10,0724_eid_dnn_64-3-10_elephant_10_n02504458_6132.png
clip,1,725,NaN,knife,keyboard,64-3-10,0725_eid_dnn_64-3-10_keyboard_10_n03085013_24668.png
clip,1,726,NaN,bird,bird,1-3-10,0726_eid_dnn_1-3-10_bird_10_n01616318_6098.png
clip,1,727,NaN,cat,chair,128-3-10,0727_eid_dnn_128-3-10_chair_10_n03376595_4033.png
clip,1,728,NaN,truck,truck,2-3-10,0728_eid_dnn_2-3-10_truck_10_n04467665_71055.png
clip,1,729,NaN,elephant,elephant,4-3-10,0729_eid_dnn_4-3-10_elephant_10_n02504013_7271.png
clip,1,730,NaN,knife,knife,2-3-10,0730_eid_dnn_2-3-10_knife_10_n03041632_50648.png
clip,1,731,NaN,knife,clock,128-3-10,0731_eid_dnn_128-3-10_clock_10_n03196217_7795.png
clip,1,732,NaN,cat,cat,1-3-10,0732_eid_dnn_1-3-10_cat_10_n02123045_5387.png
clip,1,733,NaN,chair,chair,1-3-10,0733_eid_dnn_1-3-10_chair_10_n04099969_755.png
clip,1,734,NaN,oven,elephant,32-3-10,0734_eid_dnn_32-3-10_elephant_10_n02504458_6398.png
clip,1,735,NaN,keyboard,keyboard,4-3-10,0735_eid_dnn_4-3-10_keyboard_10_n03085013_9209.png
clip,1,736,NaN,knife,boat,16-3-10,0736_eid_dnn_16-3-10_boat_10_n04612504_673.png
clip,1,737,NaN,bottle,bottle,2-3-10,0737_eid_dnn_2-3-10_bottle_10_n04591713_2485.png
clip,1,738,NaN,truck,truck,4-3-10,0738_eid_dnn_4-3-10_truck_10_n03417042_6654.png
clip,1,739,NaN,dog,bicycle,16-3-10,0739_eid_dnn_16-3-10_bicycle_10_n02835271_1499.png
clip,1,740,NaN,knife,chair,128-3-10,0740_eid_dnn_128-3-10_chair_10_n02791124_2600.png
clip,1,741,NaN,bicycle,bird,32-3-10,0741_eid_dnn_32-3-10_bird_10_n01622779_12117.png
clip,1,742,NaN,cat,dog,4-3-10,0742_eid_dnn_4-3-10_dog_10_n02098105_2333.png
clip,1,743,NaN,cat,bird,16-3-10,0743_eid_dnn_16-3-10_bird_10_n01833805_3242.png
clip,1,744,NaN,bird,bird,4-3-10,0744_eid_dnn_4-3-10_bird_10_n02056570_4807.png
clip,1,745,NaN,bear,keyboard,128-3-10,0745_eid_dnn_128-3-10_keyboard_10_n04505470_4467.png
clip,1,746,NaN,knife,oven,32-3-10,0746_eid_dnn_32-3-10_oven_10_n04111531_2027.png
clip,1,747,NaN,clock,clock,32-3-10,0747_eid_dnn_32-3-10_clock_10_n02708093_3790.png
clip,1,748,NaN,knife,cat,32-3-10,0748_eid_dnn_32-3-10_cat_10_n02123045_7240.png
clip,1,749,NaN,bear,dog,8-3-10,0749_eid_dnn_8-3-10_dog_10_n02087394_239.png
clip,1,750,NaN,cat,oven,128-3-10,0750_eid_dnn_128-3-10_oven_10_n04111531_14848.png
clip,1,751,NaN,clock,clock,1-3-10,0751_eid_dnn_1-3-10_clock_10_n03196217_6707.png
clip,1,752,NaN,cat,cat,8-3-10,0752_eid_dnn_8-3-10_cat_10_n02123394_3329.png
clip,1,753,NaN,bicycle,dog,32-3-10,0753_eid_dnn_32-3-10_dog_10_n02093428_3667.png
clip,1,754,NaN,car,car,1-3-10,0754_eid_dnn_1-3-10_car_10_n02814533_37110.png
clip,1,755,NaN,knife,car,32-3-10,0755_eid_dnn_32-3-10_car_10_n02814533_32802.png
clip,1,756,NaN,airplane,truck,32-3-10,0756_eid_dnn_32-3-10_truck_10_n03796401_4454.png
clip,1,757,NaN,car,car,1-3-10,0757_eid_dnn_1-3-10_car_10_n04285008_11291.png
clip,1,758,NaN,knife,bicycle,128-3-10,0758_eid_dnn_128-3-10_bicycle_10_n02835271_14544.png
clip,1,759,NaN,boat,truck,8-3-10,0759_eid_dnn_8-3-10_truck_10_n04467665_28301.png
clip,1,760,NaN,bottle,bottle,2-3-10,0760_eid_dnn_2-3-10_bottle_10_n02823428_4068.png
clip,1,761,NaN,truck,truck,4-3-10,0761_eid_dnn_4-3-10_truck_10_n03417042_13013.png
clip,1,762,NaN,knife,truck,16-3-10,0762_eid_dnn_16-3-10_truck_10_n03417042_2767.png
clip,1,763,NaN,airplane,airplane,1-3-10,0763_eid_dnn_1-3-10_airplane_10_n02690373_6332.png
clip,1,764,NaN,elephant,elephant,4-3-10,0764_eid_dnn_4-3-10_elephant_10_n02504458_3951.png
clip,1,765,NaN,bicycle,bicycle,4-3-10,0765_eid_dnn_4-3-10_bicycle_10_n02835271_8180.png
clip,1,766,NaN,elephant,elephant,1-3-10,0766_eid_dnn_1-3-10_elephant_10_n02504458_6888.png
clip,1,767,NaN,knife,car,128-3-10,0767_eid_dnn_128-3-10_car_10_n03100240_5489.png
clip,1,768,NaN,oven,oven,4-3-10,0768_eid_dnn_4-3-10_oven_10_n04111531_13520.png
clip,1,769,NaN,cat,bicycle,16-3-10,0769_eid_dnn_16-3-10_bicycle_10_n02835271_1426.png
clip,1,770,NaN,boat,car,8-3-10,0770_eid_dnn_8-3-10_car_10_n02814533_31384.png
clip,1,771,NaN,knife,oven,16-3-10,0771_eid_dnn_16-3-10_oven_10_n04111531_2091.png
clip,1,772,NaN,knife,oven,64-3-10,0772_eid_dnn_64-3-10_oven_10_n04111531_17507.png
clip,1,773,NaN,knife,oven,4-3-10,0773_eid_dnn_4-3-10_oven_10_n04111531_6851.png
clip,1,774,NaN,bear,bear,4-3-10,0774_eid_dnn_4-3-10_bear_10_n02134084_10112.png
clip,1,775,NaN,bear,boat,2-3-10,0775_eid_dnn_2-3-10_boat_10_n02951358_34051.png
clip,1,776,NaN,knife,chair,16-3-10,0776_eid_dnn_16-3-10_chair_10_n03376595_6864.png
clip,1,777,NaN,knife,oven,32-3-10,0777_eid_dnn_32-3-10_oven_10_n04111531_7469.png
clip,1,778,NaN,boat,airplane,8-3-10,0778_eid_dnn_8-3-10_airplane_10_n02690373_7535.png
clip,1,779,NaN,cat,bottle,32-3-10,0779_eid_dnn_32-3-10_bottle_10_n02823428_8300.png
clip,1,780,NaN,knife,car,64-3-10,0780_eid_dnn_64-3-10_car_10_n03100240_7626.png
clip,1,781,NaN,cat,elephant,128-3-10,0781_eid_dnn_128-3-10_elephant_10_n02504458_2068.png
clip,1,782,NaN,oven,knife,2-3-10,0782_eid_dnn_2-3-10_knife_10_n03041632_30666.png
clip,1,783,NaN,knife,cat,16-3-10,0783_eid_dnn_16-3-10_cat_10_n02123597_3921.png
clip,1,784,NaN,car,car,4-3-10,0784_eid_dnn_4-3-10_car_10_n03100240_12560.png
clip,1,785,NaN,oven,knife,32-3-10,0785_eid_dnn_32-3-10_knife_10_n03041632_43634.png
clip,1,786,NaN,cat,cat,128-3-10,0786_eid_dnn_128-3-10_cat_10_n02125311_3438.png
clip,1,787,NaN,dog,bird,8-3-10,0787_eid_dnn_8-3-10_bird_10_n02025239_9177.png
clip,1,788,NaN,knife,airplane,64-3-10,0788_eid_dnn_64-3-10_airplane_10_n02690373_2162.png
clip,1,789,NaN,boat,boat,16-3-10,0789_eid_dnn_16-3-10_boat_10_n02951358_9103.png
clip,1,790,NaN,cat,cat,2-3-10,0790_eid_dnn_2-3-10_cat_10_n02123045_2721.png
clip,1,791,NaN,airplane,airplane,2-3-10,0791_eid_dnn_2-3-10_airplane_10_n02690373_9762.png
clip,1,792,NaN,cat,keyboard,32-3-10,0792_eid_dnn_32-3-10_keyboard_10_n03085013_20284.png
clip,1,793,NaN,bear,bear,2-3-10,0793_eid_dnn_2-3-10_bear_10_n02134418_2254.png
clip,1,794,NaN,knife,oven,8-3-10,0794_eid_dnn_8-3-10_oven_10_n04111531_5802.png
clip,1,795,NaN,knife,boat,64-3-10,0795_eid_dnn_64-3-10_boat_10_n02951358_35073.png
clip,1,796,NaN,knife,elephant,64-3-10,0796_eid_dnn_64-3-10_elephant_10_n02504458_6130.png
clip,1,797,NaN,knife,bicycle,32-3-10,0797_eid_dnn_32-3-10_bicycle_10_n02835271_15601.png
clip,1,798,NaN,knife,bicycle,64-3-10,0798_eid_dnn_64-3-10_bicycle_10_n03792782_20007.png
clip,1,799,NaN,oven,boat,64-3-10,0799_eid_dnn_64-3-10_boat_10_n02951358_4544.png
clip,1,800,NaN,knife,bicycle,32-3-10,0800_eid_dnn_32-3-10_bicycle_10_n02835271_4160.png
clip,1,801,NaN,dog,bird,8-3-10,0801_eid_dnn_8-3-10_bird_10_n01622779_6459.png
clip,1,802,NaN,bear,bottle,1-3-10,0802_eid_dnn_1-3-10_bottle_10_n03937543_2677.png
clip,1,803,NaN,knife,keyboard,64-3-10,0803_eid_dnn_64-3-10_keyboard_10_n03085013_20852.png
clip,1,804,NaN,dog,knife,4-3-10,0804_eid_dnn_4-3-10_knife_10_n03041632_19971.png
clip,1,805,NaN,boat,car,16-3-10,0805_eid_dnn_16-3-10_car_10_n02814533_8025.png
clip,1,806,NaN,knife,bear,16-3-10,0806_eid_dnn_16-3-10_bear_10_n02133161_3850.png
clip,1,807,NaN,clock,clock,16-3-10,0807_eid_dnn_16-3-10_clock_10_n04548280_1041.png
clip,1,808,NaN,dog,chair,8-3-10,0808_eid_dnn_8-3-10_chair_10_n02791124_2035.png
clip,1,809,NaN,oven,oven,1-3-10,0809_eid_dnn_1-3-10_oven_10_n04111531_22834.png
clip,1,810,NaN,bear,bear,8-3-10,0810_eid_dnn_8-3-10_bear_10_n02132136_1694.png
clip,1,811,NaN,knife,airplane,128-3-10,0811_eid_dnn_128-3-10_airplane_10_n02690373_4943.png
clip,1,812,NaN,oven,chair,16-3-10,0812_eid_dnn_16-3-10_chair_10_n02791124_206.png
clip,1,813,NaN,clock,clock,2-3-10,0813_eid_dnn_2-3-10_clock_10_n03196217_7759.png
clip,1,814,NaN,oven,oven,2-3-10,0814_eid_dnn_2-3-10_oven_10_n04111531_20591.png
clip,1,815,NaN,knife,knife,128-3-10,0815_eid_dnn_128-3-10_knife_10_n03041632_7119.png
clip,1,816,NaN,knife,boat,64-3-10,0816_eid_dnn_64-3-10_boat_10_n04612504_5489.png
clip,1,817,NaN,knife,knife,8-3-10,0817_eid_dnn_8-3-10_knife_10_n03041632_94620.png
clip,1,818,NaN,elephant,elephant,2-3-10,0818_eid_dnn_2-3-10_elephant_10_n02504013_3433.png
clip,1,819,NaN,knife,airplane,128-3-10,0819_eid_dnn_128-3-10_airplane_10_n02690373_845.png
clip,1,820,NaN,chair,chair,4-3-10,0820_eid_dnn_4-3-10_chair_10_n04429376_11383.png
clip,1,821,NaN,cat,chair,32-3-10,0821_eid_dnn_32-3-10_chair_10_n02791124_2611.png
clip,1,822,NaN,dog,bear,16-3-10,0822_eid_dnn_16-3-10_bear_10_n02134084_9307.png
clip,1,823,NaN,knife,boat,128-3-10,0823_eid_dnn_128-3-10_boat_10_n02951358_34418.png
clip,1,824,NaN,knife,keyboard,32-3-10,0824_eid_dnn_32-3-10_keyboard_10_n03085013_15484.png
clip,1,825,NaN,elephant,elephant,4-3-10,0825_eid_dnn_4-3-10_elephant_10_n02504013_8270.png
clip,1,826,NaN,knife,elephant,16-3-10,0826_eid_dnn_16-3-10_elephant_10_n02504013_2431.png
clip,1,827,NaN,knife,clock,16-3-10,0827_eid_dnn_16-3-10_clock_10_n04548280_6134.png
clip,1,828,NaN,keyboard,keyboard,2-3-10,0828_eid_dnn_2-3-10_keyboard_10_n03085013_7858.png
clip,1,829,NaN,knife,bear,32-3-10,0829_eid_dnn_32-3-10_bear_10_n02134084_3479.png
clip,1,830,NaN,oven,bicycle,32-3-10,0830_eid_dnn_32-3-10_bicycle_10_n03792782_63201.png
clip,1,831,NaN,airplane,airplane,1-3-10,0831_eid_dnn_1-3-10_airplane_10_n02690373_1235.png
clip,1,832,NaN,knife,keyboard,128-3-10,0832_eid_dnn_128-3-10_keyboard_10_n03085013_20837.png
clip,1,833,NaN,cat,dog,16-3-10,0833_eid_dnn_16-3-10_dog_10_n02111129_1065.png
clip,1,834,NaN,knife,knife,16-3-10,0834_eid_dnn_16-3-10_knife_10_n03041632_52371.png
clip,1,835,NaN,airplane,airplane,2-3-10,0835_eid_dnn_2-3-10_airplane_10_n02690373_4024.png
clip,1,836,NaN,car,car,4-3-10,0836_eid_dnn_4-3-10_car_10_n02814533_45150.png
clip,1,837,NaN,truck,truck,1-3-10,0837_eid_dnn_1-3-10_truck_10_n03417042_4761.png
clip,1,838,NaN,bear,cat,8-3-10,0838_eid_dnn_8-3-10_cat_10_n02123597_9901.png
clip,1,839,NaN,knife,bicycle,16-3-10,0839_eid_dnn_16-3-10_bicycle_10_n02835271_4246.png
clip,1,840,NaN,airplane,airplane,4-3-10,0840_eid_dnn_4-3-10_airplane_10_n02690373_744.png
clip,1,841,NaN,chair,chair,4-3-10,0841_eid_dnn_4-3-10_chair_10_n04099969_195.png
clip,1,842,NaN,cat,bird,128-3-10,0842_eid_dnn_128-3-10_bird_10_n01560419_5447.png
clip,1,843,NaN,dog,clock,128-3-10,0843_eid_dnn_128-3-10_clock_10_n03196217_1079.png
clip,1,844,NaN,bear,clock,8-3-10,0844_eid_dnn_8-3-10_clock_10_n02708093_2717.png
clip,1,845,NaN,cat,cat,1-3-10,0845_eid_dnn_1-3-10_cat_10_n02123159_4519.png
clip,1,846,NaN,elephant,elephant,8-3-10,0846_eid_dnn_8-3-10_elephant_10_n02504013_812.png
clip,1,847,NaN,keyboard,keyboard,1-3-10,0847_eid_dnn_1-3-10_keyboard_10_n03085013_2594.png
clip,1,848,NaN,keyboard,keyboard,1-3-10,0848_eid_dnn_1-3-10_keyboard_10_n03085013_20709.png
clip,1,849,NaN,knife,cat,64-3-10,0849_eid_dnn_64-3-10_cat_10_n02125311_17933.png
clip,1,850,NaN,bear,bear,1-3-10,0850_eid_dnn_1-3-10_bear_10_n02133161_1656.png
clip,1,851,NaN,oven,truck,2-3-10,0851_eid_dnn_2-3-10_truck_10_n03417042_94.png
clip,1,852,NaN,knife,bicycle,64-3-10,0852_eid_dnn_64-3-10_bicycle_10_n02835271_262.png
clip,1,853,NaN,dog,chair,64-3-10,0853_eid_dnn_64-3-10_chair_10_n02791124_15756.png
clip,1,854,NaN,cat,elephant,128-3-10,0854_eid_dnn_128-3-10_elephant_10_n02504013_13223.png
clip,1,855,NaN,knife,keyboard,4-3-10,0855_eid_dnn_4-3-10_keyboard_10_n04505470_2378.png
clip,1,856,NaN,oven,bottle,16-3-10,0856_eid_dnn_16-3-10_bottle_10_n04560804_15967.png
clip,1,857,NaN,knife,clock,16-3-10,0857_eid_dnn_16-3-10_clock_10_n02708093_6857.png
clip,1,858,NaN,airplane,airplane,2-3-10,0858_eid_dnn_2-3-10_airplane_10_n02690373_6665.png
clip,1,859,NaN,cat,bottle,64-3-10,0859_eid_dnn_64-3-10_bottle_10_n04591713_6164.png
clip,1,860,NaN,bear,bear,1-3-10,0860_eid_dnn_1-3-10_bear_10_n02133161_4223.png
clip,1,861,NaN,bicycle,bicycle,4-3-10,0861_eid_dnn_4-3-10_bicycle_10_n03792782_6152.png
clip,1,862,NaN,oven,oven,2-3-10,0862_eid_dnn_2-3-10_oven_10_n04111531_8269.png
clip,1,863,NaN,knife,cat,128-3-10,0863_eid_dnn_128-3-10_cat_10_n02123394_6505.png
clip,1,864,NaN,car,car,1-3-10,0864_eid_dnn_1-3-10_car_10_n04285008_16856.png
clip,1,865,NaN,knife,knife,4-3-10,0865_eid_dnn_4-3-10_knife_10_n03041632_4443.png
clip,1,866,NaN,boat,boat,2-3-10,0866_eid_dnn_2-3-10_boat_10_n02951358_3556.png
clip,1,867,NaN,dog,oven,8-3-10,0867_eid_dnn_8-3-10_oven_10_n04111531_1002.png
clip,1,868,NaN,cat,cat,1-3-10,0868_eid_dnn_1-3-10_cat_10_n02123159_4157.png
clip,1,869,NaN,knife,bird,32-3-10,0869_eid_dnn_32-3-10_bird_10_n01824575_1765.png
clip,1,870,NaN,knife,truck,64-3-10,0870_eid_dnn_64-3-10_truck_10_n03417042_25947.png
clip,1,871,NaN,knife,car,128-3-10,0871_eid_dnn_128-3-10_car_10_n03100240_688.png
clip,1,872,NaN,cat,chair,128-3-10,0872_eid_dnn_128-3-10_chair_10_n04099969_44784.png
clip,1,873,NaN,boat,knife,16-3-10,0873_eid_dnn_16-3-10_knife_10_n03041632_47234.png
clip,1,874,NaN,dog,dog,8-3-10,0874_eid_dnn_8-3-10_dog_10_n02099267_15002.png
clip,1,875,NaN,knife,bird,64-3-10,0875_eid_dnn_64-3-10_bird_10_n01796340_1230.png
clip,1,876,NaN,oven,oven,1-3-10,0876_eid_dnn_1-3-10_oven_10_n04111531_9308.png
clip,1,877,NaN,bicycle,oven,2-3-10,0877_eid_dnn_2-3-10_oven_10_n04111531_15367.png
clip,1,878,NaN,knife,knife,1-3-10,0878_eid_dnn_1-3-10_knife_10_n03041632_36247.png
clip,1,879,NaN,chair,chair,1-3-10,0879_eid_dnn_1-3-10_chair_10_n02791124_1788.png
clip,1,880,NaN,bottle,bottle,2-3-10,0880_eid_dnn_2-3-10_bottle_10_n03937543_6003.png
clip,1,881,NaN,chair,chair,4-3-10,0881_eid_dnn_4-3-10_chair_10_n04429376_12617.png
clip,1,882,NaN,knife,knife,128-3-10,0882_eid_dnn_128-3-10_knife_10_n03041632_18468.png
clip,1,883,NaN,knife,chair,32-3-10,0883_eid_dnn_32-3-10_chair_10_n02791124_9216.png
clip,1,884,NaN,bottle,clock,8-3-10,0884_eid_dnn_8-3-10_clock_10_n04548280_6477.png
clip,1,885,NaN,truck,truck,1-3-10,0885_eid_dnn_1-3-10_truck_10_n03417042_7869.png
clip,1,886,NaN,knife,airplane,16-3-10,0886_eid_dnn_16-3-10_airplane_10_n02690373_3753.png
clip,1,887,NaN,knife,knife,32-3-10,0887_eid_dnn_32-3-10_knife_10_n03041632_27963.png
clip,1,888,NaN,knife,dog,32-3-10,0888_eid_dnn_32-3-10_dog_10_n02108422_577.png
clip,1,889,NaN,elephant,elephant,1-3-10,0889_eid_dnn_1-3-10_elephant_10_n02504013_6615.png
clip,1,890,NaN,cat,cat,4-3-10,0890_eid_dnn_4-3-10_cat_10_n02124075_2113.png
clip,1,891,NaN,cat,cat,8-3-10,0891_eid_dnn_8-3-10_cat_10_n02123045_8636.png
clip,1,892,NaN,knife,bear,16-3-10,0892_eid_dnn_16-3-10_bear_10_n02132136_1211.png
clip,1,893,NaN,dog,dog,1-3-10,0893_eid_dnn_1-3-10_dog_10_n02097658_816.png
clip,1,894,NaN,knife,bird,16-3-10,0894_eid_dnn_16-3-10_bird_10_n02006656_6688.png
clip,1,895,NaN,cat,cat,2-3-10,0895_eid_dnn_2-3-10_cat_10_n02124075_7932.png
clip,1,896,NaN,knife,elephant,64-3-10,0896_eid_dnn_64-3-10_elephant_10_n02504013_3418.png
clip,1,897,NaN,bicycle,bicycle,2-3-10,0897_eid_dnn_2-3-10_bicycle_10_n02835271_6641.png
clip,1,898,NaN,knife,keyboard,128-3-10,0898_eid_dnn_128-3-10_keyboard_10_n03085013_24399.png
clip,1,899,NaN,oven,clock,1-3-10,0899_eid_dnn_1-3-10_clock_10_n03196217_3022.png
clip,1,900,NaN,knife,bicycle,32-3-10,0900_eid_dnn_32-3-10_bicycle_10_n02835271_12025.png
clip,1,901,NaN,knife,elephant,32-3-10,0901_eid_dnn_32-3-10_elephant_10_n02504458_1211.png
clip,1,902,NaN,knife,keyboard,128-3-10,0902_eid_dnn_128-3-10_keyboard_10_n03085013_7879.png
clip,1,903,NaN,knife,clock,128-3-10,0903_eid_dnn_128-3-10_clock_10_n04548280_1535.png
clip,1,904,NaN,knife,bird,128-3-10,0904_eid_dnn_128-3-10_bird_10_n01798484_7213.png
clip,1,905,NaN,knife,elephant,16-3-10,0905_eid_dnn_16-3-10_elephant_10_n02504458_3172.png
clip,1,906,NaN,boat,bird,16-3-10,0906_eid_dnn_16-3-10_bird_10_n02028035_2478.png
clip,1,907,NaN,clock,clock,2-3-10,0907_eid_dnn_2-3-10_clock_10_n04548280_4583.png
clip,1,908,NaN,chair,chair,2-3-10,0908_eid_dnn_2-3-10_chair_10_n02791124_2649.png
clip,1,909,NaN,airplane,bird,32-3-10,0909_eid_dnn_32-3-10_bird_10_n02002724_1235.png
clip,1,910,NaN,knife,truck,128-3-10,0910_eid_dnn_128-3-10_truck_10_n03796401_6977.png
clip,1,911,NaN,oven,oven,1-3-10,0911_eid_dnn_1-3-10_oven_10_n04111531_8350.png
clip,1,912,NaN,bear,dog,8-3-10,0912_eid_dnn_8-3-10_dog_10_n02113624_8833.png
clip,1,913,NaN,knife,keyboard,8-3-10,0913_eid_dnn_8-3-10_keyboard_10_n03085013_19512.png
clip,1,914,NaN,cat,truck,16-3-10,0914_eid_dnn_16-3-10_truck_10_n03796401_4311.png
clip,1,915,NaN,knife,oven,16-3-10,0915_eid_dnn_16-3-10_oven_10_n04111531_23668.png
clip,1,916,NaN,knife,oven,64-3-10,0916_eid_dnn_64-3-10_oven_10_n04111531_807.png
clip,1,917,NaN,bicycle,bicycle,2-3-10,0917_eid_dnn_2-3-10_bicycle_10_n02835271_3956.png
clip,1,918,NaN,cat,cat,64-3-10,0918_eid_dnn_64-3-10_cat_10_n02125311_2869.png
clip,1,919,NaN,knife,elephant,128-3-10,0919_eid_dnn_128-3-10_elephant_10_n02504013_6141.png
clip,1,920,NaN,knife,cat,32-3-10,0920_eid_dnn_32-3-10_cat_10_n02123045_7248.png
clip,1,921,NaN,knife,elephant,32-3-10,0921_eid_dnn_32-3-10_elephant_10_n02504013_4295.png
clip,1,922,NaN,knife,dog,32-3-10,0922_eid_dnn_32-3-10_dog_10_n02107574_5583.png
clip,1,923,NaN,knife,oven,32-3-10,0923_eid_dnn_32-3-10_oven_10_n04111531_14325.png
clip,1,924,NaN,bear,dog,16-3-10,0924_eid_dnn_16-3-10_dog_10_n02089867_6106.png
clip,1,925,NaN,dog,keyboard,16-3-10,0925_eid_dnn_16-3-10_keyboard_10_n04505470_2737.png
clip,1,926,NaN,knife,bird,16-3-10,0926_eid_dnn_16-3-10_bird_10_n02011460_23755.png
clip,1,927,NaN,airplane,bear,32-3-10,0927_eid_dnn_32-3-10_bear_10_n02134084_22032.png
clip,1,928,NaN,bird,bird,2-3-10,0928_eid_dnn_2-3-10_bird_10_n01855672_19945.png
clip,1,929,NaN,knife,dog,16-3-10,0929_eid_dnn_16-3-10_dog_10_n02101388_2177.png
clip,1,930,NaN,knife,knife,32-3-10,0930_eid_dnn_32-3-10_knife_10_n03041632_23667.png
clip,1,931,NaN,car,car,2-3-10,0931_eid_dnn_2-3-10_car_10_n02814533_61501.png
clip,1,932,NaN,knife,knife,2-3-10,0932_eid_dnn_2-3-10_knife_10_n03041632_8321.png
clip,1,933,NaN,knife,knife,4-3-10,0933_eid_dnn_4-3-10_knife_10_n03041632_126.png
clip,1,934,NaN,knife,chair,64-3-10,0934_eid_dnn_64-3-10_chair_10_n04429376_22670.png
clip,1,935,NaN,oven,oven,2-3-10,0935_eid_dnn_2-3-10_oven_10_n04111531_6958.png
clip,1,936,NaN,knife,dog,32-3-10,0936_eid_dnn_32-3-10_dog_10_n02109961_53644.png
clip,1,937,NaN,oven,airplane,16-3-10,0937_eid_dnn_16-3-10_airplane_10_n02690373_1038.png
clip,1,938,NaN,airplane,airplane,32-3-10,0938_eid_dnn_32-3-10_airplane_10_n02690373_8815.png
clip,1,939,NaN,knife,bird,128-3-10,0939_eid_dnn_128-3-10_bird_10_n02002556_5393.png
clip,1,940,NaN,bear,oven,16-3-10,0940_eid_dnn_16-3-10_oven_10_n04111531_8537.png
clip,1,941,NaN,boat,boat,2-3-10,0941_eid_dnn_2-3-10_boat_10_n03344393_3219.png
clip,1,942,NaN,dog,dog,16-3-10,0942_eid_dnn_16-3-10_dog_10_n02112350_4795.png
clip,1,943,NaN,oven,bird,32-3-10,0943_eid_dnn_32-3-10_bird_10_n01531178_24471.png
clip,1,944,NaN,boat,car,16-3-10,0944_eid_dnn_16-3-10_car_10_n02814533_12310.png
clip,1,945,NaN,knife,boat,16-3-10,0945_eid_dnn_16-3-10_boat_10_n03344393_7308.png
clip,1,946,NaN,knife,car,8-3-10,0946_eid_dnn_8-3-10_car_10_n04285008_2395.png
clip,1,947,NaN,truck,truck,4-3-10,0947_eid_dnn_4-3-10_truck_10_n04467665_10122.png
clip,1,948,NaN,airplane,airplane,16-3-10,0948_eid_dnn_16-3-10_airplane_10_n02690373_848.png
clip,1,949,NaN,knife,boat,32-3-10,0949_eid_dnn_32-3-10_boat_10_n04273569_9604.png
clip,1,950,NaN,cat,knife,64-3-10,0950_eid_dnn_64-3-10_knife_10_n03041632_19571.png
clip,1,951,NaN,knife,knife,8-3-10,0951_eid_dnn_8-3-10_knife_10_n03041632_30958.png
clip,1,952,NaN,boat,airplane,8-3-10,0952_eid_dnn_8-3-10_airplane_10_n02690373_945.png
clip,1,953,NaN,knife,clock,16-3-10,0953_eid_dnn_16-3-10_clock_10_n04548280_8171.png
clip,1,954,NaN,knife,boat,128-3-10,0954_eid_dnn_128-3-10_boat_10_n04273569_229.png
clip,1,955,NaN,bicycle,bicycle,4-3-10,0955_eid_dnn_4-3-10_bicycle_10_n02835271_8618.png
clip,1,956,NaN,clock,boat,64-3-10,0956_eid_dnn_64-3-10_boat_10_n04612504_3379.png
clip,1,957,NaN,elephant,elephant,1-3-10,0957_eid_dnn_1-3-10_elephant_10_n02504458_7506.png
clip,1,958,NaN,knife,airplane,32-3-10,0958_eid_dnn_32-3-10_airplane_10_n02690373_5130.png
clip,1,959,NaN,dog,boat,8-3-10,0959_eid_dnn_8-3-10_boat_10_n03662601_17352.png
clip,1,960,NaN,oven,boat,32-3-10,0960_eid_dnn_32-3-10_boat_10_n02951358_15413.png
clip,1,961,NaN,airplane,airplane,8-3-10,0961_eid_dnn_8-3-10_airplane_10_n02690373_2851.png
clip,1,962,NaN,knife,bicycle,32-3-10,0962_eid_dnn_32-3-10_bicycle_10_n03792782_11804.png
clip,1,963,NaN,knife,truck,16-3-10,0963_eid_dnn_16-3-10_truck_10_n04467665_67726.png
clip,1,964,NaN,boat,boat,4-3-10,0964_eid_dnn_4-3-10_boat_10_n03344393_3518.png
clip,1,965,NaN,cat,cat,2-3-10,0965_eid_dnn_2-3-10_cat_10_n02123394_3339.png
clip,1,966,NaN,knife,bicycle,128-3-10,0966_eid_dnn_128-3-10_bicycle_10_n02835271_3941.png
clip,1,967,NaN,knife,airplane,32-3-10,0967_eid_dnn_32-3-10_airplane_10_n02690373_629.png
clip,1,968,NaN,cat,oven,64-3-10,0968_eid_dnn_64-3-10_oven_10_n04111531_14178.png
clip,1,969,NaN,bicycle,bicycle,1-3-10,0969_eid_dnn_1-3-10_bicycle_10_n03792782_32379.png
clip,1,970,NaN,cat,cat,2-3-10,0970_eid_dnn_2-3-10_cat_10_n02123597_13839.png
clip,1,971,NaN,knife,bear,16-3-10,0971_eid_dnn_16-3-10_bear_10_n02134418_2604.png
clip,1,972,NaN,knife,elephant,128-3-10,0972_eid_dnn_128-3-10_elephant_10_n02504013_420.png
clip,1,973,NaN,knife,chair,16-3-10,0973_eid_dnn_16-3-10_chair_10_n03376595_6986.png
clip,1,974,NaN,boat,boat,2-3-10,0974_eid_dnn_2-3-10_boat_10_n04612504_27320.png
clip,1,975,NaN,bear,dog,8-3-10,0975_eid_dnn_8-3-10_dog_10_n02105056_1381.png
clip,1,976,NaN,knife,chair,16-3-10,0976_eid_dnn_16-3-10_chair_10_n04099969_28601.png
clip,1,977,NaN,oven,car,16-3-10,0977_eid_dnn_16-3-10_car_10_n03100240_8012.png
clip,1,978,NaN,knife,elephant,128-3-10,0978_eid_dnn_128-3-10_elephant_10_n02504013_7701.png
clip,1,979,NaN,cat,bird,8-3-10,0979_eid_dnn_8-3-10_bird_10_n02011460_3761.png
clip,1,980,NaN,knife,bicycle,32-3-10,0980_eid_dnn_32-3-10_bicycle_10_n02835271_12288.png
clip,1,981,NaN,knife,knife,1-3-10,0981_eid_dnn_1-3-10_knife_10_n03041632_23129.png
clip,1,982,NaN,knife,bird,128-3-10,0982_eid_dnn_128-3-10_bird_10_n02017213_2990.png
clip,1,983,NaN,car,car,8-3-10,0983_eid_dnn_8-3-10_car_10_n04285008_17059.png
clip,1,984,NaN,clock,clock,64-3-10,0984_eid_dnn_64-3-10_clock_10_n03196217_7971.png
clip,1,985,NaN,knife,boat,128-3-10,0985_eid_dnn_128-3-10_boat_10_n04612504_2225.png
clip,1,986,NaN,truck,truck,4-3-10,0986_eid_dnn_4-3-10_truck_10_n04467665_71098.png
clip,1,987,NaN,knife,bottle,16-3-10,0987_eid_dnn_16-3-10_bottle_10_n02823428_7704.png
clip,1,988,NaN,bottle,knife,1-3-10,0988_eid_dnn_1-3-10_knife_10_n03041632_29801.png
clip,1,989,NaN,knife,elephant,64-3-10,0989_eid_dnn_64-3-10_elephant_10_n02504013_6862.png
clip,1,990,NaN,knife,oven,8-3-10,0990_eid_dnn_8-3-10_oven_10_n04111531_8793.png
clip,1,991,NaN,airplane,airplane,32-3-10,0991_eid_dnn_32-3-10_airplane_10_n02690373_349.png
clip,1,992,NaN,knife,oven,8-3-10,0992_eid_dnn_8-3-10_oven_10_n04111531_27.png
clip,1,993,NaN,bear,clock,8-3-10,0993_eid_dnn_8-3-10_clock_10_n02708093_2625.png
clip,1,994,NaN,cat,cat,32-3-10,0994_eid_dnn_32-3-10_cat_10_n02123045_13340.png
clip,1,995,NaN,knife,truck,16-3-10,0995_eid_dnn_16-3-10_truck_10_n03796401_8523.png
clip,1,996,NaN,bear,bear,8-3-10,0996_eid_dnn_8-3-10_bear_10_n02134084_15913.png
clip,1,997,NaN,dog,dog,2-3-10,0997_eid_dnn_2-3-10_dog_10_n02091635_7254.png
clip,1,998,NaN,knife,knife,32-3-10,0998_eid_dnn_32-3-10_knife_10_n03041632_51617.png
clip,1,999,NaN,elephant,elephant,8-3-10,0999_eid_dnn_8-3-10_elephant_10_n02504013_10638.png
clip,1,1000,NaN,knife,knife,128-3-10,1000_eid_dnn_128-3-10_knife_10_n03041632_8540.png
clip,1,1001,NaN,chair,chair,2-3-10,1001_eid_dnn_2-3-10_chair_10_n02791124_3222.png
clip,1,1002,NaN,knife,car,64-3-10,1002_eid_dnn_64-3-10_car_10_n03100240_10126.png
clip,1,1003,NaN,cat,car,64-3-10,1003_eid_dnn_64-3-10_car_10_n03100240_9101.png
clip,1,1004,NaN,cat,oven,1-3-10,1004_eid_dnn_1-3-10_oven_10_n04111531_1770.png
clip,1,1005,NaN,knife,bicycle,32-3-10,1005_eid_dnn_32-3-10_bicycle_10_n03792782_13160.png
clip,1,1006,NaN,knife,dog,128-3-10,1006_eid_dnn_128-3-10_dog_10_n02088094_4195.png
clip,1,1007,NaN,bicycle,bicycle,1-3-10,1007_eid_dnn_1-3-10_bicycle_10_n02835271_21707.png
clip,1,1008,NaN,truck,truck,4-3-10,1008_eid_dnn_4-3-10_truck_10_n04467665_58158.png
clip,1,1009,NaN,knife,truck,64-3-10,1009_eid_dnn_64-3-10_truck_10_n03417042_27581.png
clip,1,1010,NaN,knife,boat,16-3-10,1010_eid_dnn_16-3-10_boat_10_n03662601_5915.png
clip,1,1011,NaN,knife,chair,64-3-10,1011_eid_dnn_64-3-10_chair_10_n04429376_7982.png
clip,1,1012,NaN,clock,clock,1-3-10,1012_eid_dnn_1-3-10_clock_10_n03196217_11290.png
clip,1,1013,NaN,keyboard,keyboard,4-3-10,1013_eid_dnn_4-3-10_keyboard_10_n03085013_16636.png
clip,1,1014,NaN,chair,chair,2-3-10,1014_eid_dnn_2-3-10_chair_10_n04429376_6029.png
clip,1,1015,NaN,keyboard,keyboard,1-3-10,1015_eid_dnn_1-3-10_keyboard_10_n03085013_18989.png
clip,1,1016,NaN,bottle,knife,4-3-10,1016_eid_dnn_4-3-10_knife_10_n03041632_101810.png
clip,1,1017,NaN,knife,oven,32-3-10,1017_eid_dnn_32-3-10_oven_10_n04111531_681.png
clip,1,1018,NaN,knife,bear,32-3-10,1018_eid_dnn_32-3-10_bear_10_n02132136_4202.png
clip,1,1019,NaN,knife,car,128-3-10,1019_eid_dnn_128-3-10_car_10_n02814533_5888.png
clip,1,1020,NaN,knife,boat,128-3-10,1020_eid_dnn_128-3-10_boat_10_n04612504_804.png
clip,1,1021,NaN,oven,car,16-3-10,1021_eid_dnn_16-3-10_car_10_n04285008_7909.png
clip,1,1022,NaN,bear,bear,4-3-10,1022_eid_dnn_4-3-10_bear_10_n02133161_11422.png
clip,1,1023,NaN,dog,clock,16-3-10,1023_eid_dnn_16-3-10_clock_10_n03196217_10352.png
clip,1,1024,NaN,knife,chair,64-3-10,1024_eid_dnn_64-3-10_chair_10_n04099969_3430.png
clip,1,1025,NaN,bear,bear,8-3-10,1025_eid_dnn_8-3-10_bear_10_n02132136_648.png
clip,1,1026,NaN,boat,boat,4-3-10,1026_eid_dnn_4-3-10_boat_10_n04612504_7566.png
clip,1,1027,NaN,cat,bird,8-3-10,1027_eid_dnn_8-3-10_bird_10_n02056570_9935.png
clip,1,1028,NaN,knife,oven,16-3-10,1028_eid_dnn_16-3-10_oven_10_n04111531_3270.png
clip,1,1029,NaN,elephant,elephant,1-3-10,1029_eid_dnn_1-3-10_elephant_10_n02504013_3425.png
clip,1,1030,NaN,cat,cat,4-3-10,1030_eid_dnn_4-3-10_cat_10_n02125311_58887.png
clip,1,1031,NaN,chair,chair,2-3-10,1031_eid_dnn_2-3-10_chair_10_n04429376_6496.png
clip,1,1032,NaN,knife,chair,16-3-10,1032_eid_dnn_16-3-10_chair_10_n04429376_3426.png
clip,1,1033,NaN,bicycle,bicycle,2-3-10,1033_eid_dnn_2-3-10_bicycle_10_n02835271_14846.png
clip,1,1034,NaN,bicycle,bicycle,1-3-10,1034_eid_dnn_1-3-10_bicycle_10_n02835271_4409.png
clip,1,1035,NaN,cat,dog,128-3-10,1035_eid_dnn_128-3-10_dog_10_n02092339_6406.png
clip,1,1036,NaN,dog,dog,2-3-10,1036_eid_dnn_2-3-10_dog_10_n02102040_988.png
clip,1,1037,NaN,bear,bear,2-3-10,1037_eid_dnn_2-3-10_bear_10_n02134084_18596.png
clip,1,1038,NaN,boat,elephant,128-3-10,1038_eid_dnn_128-3-10_elephant_10_n02504458_4263.png
clip,1,1039,NaN,oven,bear,8-3-10,1039_eid_dnn_8-3-10_bear_10_n02134418_4406.png
clip,1,1040,NaN,car,car,2-3-10,1040_eid_dnn_2-3-10_car_10_n03100240_6836.png
clip,1,1041,NaN,cat,airplane,64-3-10,1041_eid_dnn_64-3-10_airplane_10_n02690373_3377.png
clip,1,1042,NaN,knife,chair,4-3-10,1042_eid_dnn_4-3-10_chair_10_n04429376_11813.png
clip,1,1043,NaN,bottle,bottle,2-3-10,1043_eid_dnn_2-3-10_bottle_10_n04591713_3608.png
clip,1,1044,NaN,cat,car,128-3-10,1044_eid_dnn_128-3-10_car_10_n02814533_3384.png
clip,1,1045,NaN,cat,oven,32-3-10,1045_eid_dnn_32-3-10_oven_10_n04111531_6975.png
clip,1,1046,NaN,knife,bicycle,64-3-10,1046_eid_dnn_64-3-10_bicycle_10_n02835271_1344.png
clip,1,1047,NaN,knife,bird,64-3-10,1047_eid_dnn_64-3-10_bird_10_n01530575_33354.png
clip,1,1048,NaN,bicycle,bicycle,2-3-10,1048_eid_dnn_2-3-10_bicycle_10_n02835271_8060.png
clip,1,1049,NaN,knife,bicycle,8-3-10,1049_eid_dnn_8-3-10_bicycle_10_n03792782_49510.png
clip,1,1050,NaN,bird,bird,1-3-10,1050_eid_dnn_1-3-10_bird_10_n01817953_12850.png
clip,1,1051,NaN,elephant,elephant,1-3-10,1051_eid_dnn_1-3-10_elephant_10_n02504013_23590.png
clip,1,1052,NaN,airplane,bicycle,128-3-10,1052_eid_dnn_128-3-10_bicycle_10_n03792782_3815.png
clip,1,1053,NaN,dog,bottle,8-3-10,1053_eid_dnn_8-3-10_bottle_10_n02823428_5374.png
clip,1,1054,NaN,knife,knife,4-3-10,1054_eid_dnn_4-3-10_knife_10_n03041632_24181.png
clip,1,1055,NaN,knife,oven,8-3-10,1055_eid_dnn_8-3-10_oven_10_n04111531_6923.png
clip,1,1056,NaN,cat,cat,4-3-10,1056_eid_dnn_4-3-10_cat_10_n02125311_26954.png
clip,1,1057,NaN,knife,knife,8-3-10,1057_eid_dnn_8-3-10_knife_10_n03041632_10802.png
clip,1,1058,NaN,bottle,clock,8-3-10,1058_eid_dnn_8-3-10_clock_10_n03196217_7985.png
clip,1,1059,NaN,knife,knife,16-3-10,1059_eid_dnn_16-3-10_knife_10_n03041632_23548.png
clip,1,1060,NaN,bottle,bottle,4-3-10,1060_eid_dnn_4-3-10_bottle_10_n04579145_6678.png
clip,1,1061,NaN,cat,oven,64-3-10,1061_eid_dnn_64-3-10_oven_10_n04111531_4817.png
clip,1,1062,NaN,clock,clock,1-3-10,1062_eid_dnn_1-3-10_clock_10_n02708093_51.png
clip,1,1063,NaN,knife,bird,64-3-10,1063_eid_dnn_64-3-10_bird_10_n02033041_2480.png
clip,1,1064,NaN,knife,bear,64-3-10,1064_eid_dnn_64-3-10_bear_10_n02134084_134.png
clip,1,1065,NaN,oven,oven,1-3-10,1065_eid_dnn_1-3-10_oven_10_n04111531_10093.png
clip,1,1066,NaN,knife,keyboard,128-3-10,1066_eid_dnn_128-3-10_keyboard_10_n04505470_54.png
clip,1,1067,NaN,bicycle,bicycle,2-3-10,1067_eid_dnn_2-3-10_bicycle_10_n03792782_16837.png
clip,1,1068,NaN,knife,car,64-3-10,1068_eid_dnn_64-3-10_car_10_n02814533_10069.png
clip,1,1069,NaN,knife,clock,32-3-10,1069_eid_dnn_32-3-10_clock_10_n03196217_2859.png
clip,1,1070,NaN,knife,bicycle,8-3-10,1070_eid_dnn_8-3-10_bicycle_10_n03792782_1288.png
clip,1,1071,NaN,knife,knife,128-3-10,1071_eid_dnn_128-3-10_knife_10_n03041632_31909.png
clip,1,1072,NaN,dog,bird,8-3-10,1072_eid_dnn_8-3-10_bird_10_n01820546_4748.png
clip,1,1073,NaN,elephant,elephant,1-3-10,1073_eid_dnn_1-3-10_elephant_10_n02504458_6878.png
clip,1,1074,NaN,knife,car,32-3-10,1074_eid_dnn_32-3-10_car_10_n02814533_70922.png
clip,1,1075,NaN,cat,bottle,8-3-10,1075_eid_dnn_8-3-10_bottle_10_n04591713_1764.png
clip,1,1076,NaN,car,car,8-3-10,1076_eid_dnn_8-3-10_car_10_n04285008_13.png
clip,1,1077,NaN,knife,oven,32-3-10,1077_eid_dnn_32-3-10_oven_10_n04111531_17917.png
clip,1,1078,NaN,oven,oven,1-3-10,1078_eid_dnn_1-3-10_oven_10_n04111531_21963.png
clip,1,1079,NaN,oven,chair,16-3-10,1079_eid_dnn_16-3-10_chair_10_n02791124_5238.png
clip,1,1080,NaN,oven,bicycle,16-3-10,1080_eid_dnn_16-3-10_bicycle_10_n03792782_7963.png
clip,1,1081,NaN,clock,clock,2-3-10,1081_eid_dnn_2-3-10_clock_10_n03196217_11657.png
clip,1,1082,NaN,dog,dog,1-3-10,1082_eid_dnn_1-3-10_dog_10_n02091134_5848.png
clip,1,1083,NaN,elephant,oven,8-3-10,1083_eid_dnn_8-3-10_oven_10_n04111531_14280.png
clip,1,1084,NaN,cat,truck,128-3-10,1084_eid_dnn_128-3-10_truck_10_n03796401_7487.png
clip,1,1085,NaN,clock,car,64-3-10,1085_eid_dnn_64-3-10_car_10_n03100240_17073.png
clip,1,1086,NaN,oven,keyboard,32-3-10,1086_eid_dnn_32-3-10_keyboard_10_n04505470_7335.png
clip,1,1087,NaN,truck,truck,1-3-10,1087_eid_dnn_1-3-10_truck_10_n03796401_3488.png
clip,1,1088,NaN,airplane,airplane,2-3-10,1088_eid_dnn_2-3-10_airplane_10_n02690373_190.png
clip,1,1089,NaN,knife,boat,32-3-10,1089_eid_dnn_32-3-10_boat_10_n02951358_12867.png
clip,1,1090,NaN,bottle,bottle,2-3-10,1090_eid_dnn_2-3-10_bottle_10_n03983396_754.png
clip,1,1091,NaN,knife,elephant,32-3-10,1091_eid_dnn_32-3-10_elephant_10_n02504013_10909.png
clip,1,1092,NaN,knife,bottle,32-3-10,1092_eid_dnn_32-3-10_bottle_10_n04560804_16815.png
clip,1,1093,NaN,chair,clock,8-3-10,1093_eid_dnn_8-3-10_clock_10_n02708093_394.png
clip,1,1094,NaN,bottle,bottle,1-3-10,1094_eid_dnn_1-3-10_bottle_10_n04557648_4133.png
clip,1,1095,NaN,knife,chair,32-3-10,1095_eid_dnn_32-3-10_chair_10_n02791124_2212.png
clip,1,1096,NaN,boat,boat,8-3-10,1096_eid_dnn_8-3-10_boat_10_n03344393_5177.png
clip,1,1097,NaN,knife,truck,16-3-10,1097_eid_dnn_16-3-10_truck_10_n04467665_906.png
clip,1,1098,NaN,bear,bear,4-3-10,1098_eid_dnn_4-3-10_bear_10_n02134418_5271.png
clip,1,1099,NaN,bird,bird,1-3-10,1099_eid_dnn_1-3-10_bird_10_n01855672_11580.png
clip,1,1100,NaN,cat,truck,128-3-10,1100_eid_dnn_128-3-10_truck_10_n03417042_13871.png
clip,1,1101,NaN,knife,bottle,16-3-10,1101_eid_dnn_16-3-10_bottle_10_n03983396_2746.png
clip,1,1102,NaN,bird,bird,2-3-10,1102_eid_dnn_2-3-10_bird_10_n02011460_9401.png
clip,1,1103,NaN,boat,boat,8-3-10,1103_eid_dnn_8-3-10_boat_10_n03344393_5063.png
clip,1,1104,NaN,knife,keyboard,8-3-10,1104_eid_dnn_8-3-10_keyboard_10_n04505470_5125.png
clip,1,1105,NaN,cat,clock,32-3-10,1105_eid_dnn_32-3-10_clock_10_n02708093_3625.png
clip,1,1106,NaN,knife,chair,64-3-10,1106_eid_dnn_64-3-10_chair_10_n04099969_13789.png
clip,1,1107,NaN,knife,clock,64-3-10,1107_eid_dnn_64-3-10_clock_10_n04548280_11068.png
clip,1,1108,NaN,bear,oven,8-3-10,1108_eid_dnn_8-3-10_oven_10_n04111531_7667.png
clip,1,1109,NaN,airplane,airplane,4-3-10,1109_eid_dnn_4-3-10_airplane_10_n02690373_5869.png
clip,1,1110,NaN,bear,bear,32-3-10,1110_eid_dnn_32-3-10_bear_10_n02133161_628.png
clip,1,1111,NaN,cat,bottle,16-3-10,1111_eid_dnn_16-3-10_bottle_10_n03983396_13630.png
clip,1,1112,NaN,knife,chair,4-3-10,1112_eid_dnn_4-3-10_chair_10_n04429376_22734.png
clip,1,1113,NaN,cat,oven,64-3-10,1113_eid_dnn_64-3-10_oven_10_n04111531_3570.png
clip,1,1114,NaN,knife,truck,8-3-10,1114_eid_dnn_8-3-10_truck_10_n03417042_12133.png
clip,1,1115,NaN,knife,bottle,128-3-10,1115_eid_dnn_128-3-10_bottle_10_n04560804_9922.png
clip,1,1116,NaN,knife,dog,32-3-10,1116_eid_dnn_32-3-10_dog_10_n02094114_424.png
clip,1,1117,NaN,boat,keyboard,8-3-10,1117_eid_dnn_8-3-10_keyboard_10_n03085013_15504.png
clip,1,1118,NaN,knife,knife,4-3-10,1118_eid_dnn_4-3-10_knife_10_n03041632_27898.png
clip,1,1119,NaN,bottle,bottle,1-3-10,1119_eid_dnn_1-3-10_bottle_10_n04560804_23356.png
clip,1,1120,NaN,chair,chair,4-3-10,1120_eid_dnn_4-3-10_chair_10_n02791124_7987.png
clip,1,1121,NaN,bird,bird,4-3-10,1121_eid_dnn_4-3-10_bird_10_n01828970_2306.png
clip,1,1122,NaN,airplane,airplane,2-3-10,1122_eid_dnn_2-3-10_airplane_10_n02690373_939.png
clip,1,1123,NaN,knife,oven,64-3-10,1123_eid_dnn_64-3-10_oven_10_n04111531_605.png
clip,1,1124,NaN,knife,bicycle,128-3-10,1124_eid_dnn_128-3-10_bicycle_10_n02835271_20153.png
clip,1,1125,NaN,knife,bird,16-3-10,1125_eid_dnn_16-3-10_bird_10_n01582220_32464.png
clip,1,1126,NaN,bear,bear,1-3-10,1126_eid_dnn_1-3-10_bear_10_n02134418_9829.png
clip,1,1127,NaN,boat,boat,2-3-10,1127_eid_dnn_2-3-10_boat_10_n03662601_23315.png
clip,1,1128,NaN,keyboard,keyboard,4-3-10,1128_eid_dnn_4-3-10_keyboard_10_n04505470_4452.png
clip,1,1129,NaN,elephant,boat,8-3-10,1129_eid_dnn_8-3-10_boat_10_n03344393_7557.png
clip,1,1130,NaN,cat,truck,128-3-10,1130_eid_dnn_128-3-10_truck_10_n03796401_6923.png
clip,1,1131,NaN,knife,bear,128-3-10,1131_eid_dnn_128-3-10_bear_10_n02133161_13139.png
clip,1,1132,NaN,bear,knife,16-3-10,1132_eid_dnn_16-3-10_knife_10_n03041632_33198.png
clip,1,1133,NaN,bear,elephant,16-3-10,1133_eid_dnn_16-3-10_elephant_10_n02504013_8052.png
clip,1,1134,NaN,boat,keyboard,8-3-10,1134_eid_dnn_8-3-10_keyboard_10_n04505470_4905.png
clip,1,1135,NaN,cat,knife,128-3-10,1135_eid_dnn_128-3-10_knife_10_n03041632_25498.png
clip,1,1136,NaN,knife,bear,64-3-10,1136_eid_dnn_64-3-10_bear_10_n02133161_2226.png
clip,1,1137,NaN,knife,elephant,16-3-10,1137_eid_dnn_16-3-10_elephant_10_n02504013_10990.png
clip,1,1138,NaN,bear,clock,8-3-10,1138_eid_dnn_8-3-10_clock_10_n02708093_1975.png
clip,1,1139,NaN,knife,cat,16-3-10,1139_eid_dnn_16-3-10_cat_10_n02123045_5932.png
clip,1,1140,NaN,knife,dog,64-3-10,1140_eid_dnn_64-3-10_dog_10_n02110806_24067.png
clip,1,1141,NaN,cat,cat,128-3-10,1141_eid_dnn_128-3-10_cat_10_n02125311_2622.png
clip,1,1142,NaN,bottle,oven,4-3-10,1142_eid_dnn_4-3-10_oven_10_n04111531_1230.png
clip,1,1143,NaN,elephant,elephant,1-3-10,1143_eid_dnn_1-3-10_elephant_10_n02504013_1132.png
clip,1,1144,NaN,knife,oven,4-3-10,1144_eid_dnn_4-3-10_oven_10_n04111531_12903.png
clip,1,1145,NaN,cat,knife,8-3-10,1145_eid_dnn_8-3-10_knife_10_n03041632_91967.png
clip,1,1146,NaN,knife,keyboard,16-3-10,1146_eid_dnn_16-3-10_keyboard_10_n03085013_6834.png
clip,1,1147,NaN,knife,elephant,128-3-10,1147_eid_dnn_128-3-10_elephant_10_n02504458_7085.png
clip,1,1148,NaN,knife,keyboard,64-3-10,1148_eid_dnn_64-3-10_keyboard_10_n04505470_10242.png
clip,1,1149,NaN,elephant,elephant,2-3-10,1149_eid_dnn_2-3-10_elephant_10_n02504013_7001.png
clip,1,1150,NaN,knife,bear,32-3-10,1150_eid_dnn_32-3-10_bear_10_n02134084_11781.png
clip,1,1151,NaN,cat,bottle,8-3-10,1151_eid_dnn_8-3-10_bottle_10_n04591713_3534.png
clip,1,1152,NaN,dog,dog,1-3-10,1152_eid_dnn_1-3-10_dog_10_n02093256_5845.png
clip,1,1153,NaN,knife,oven,8-3-10,1153_eid_dnn_8-3-10_oven_10_n04111531_5473.png
clip,1,1154,NaN,cat,clock,32-3-10,1154_eid_dnn_32-3-10_clock_10_n02708093_2545.png
clip,1,1155,NaN,cat,car,64-3-10,1155_eid_dnn_64-3-10_car_10_n04285008_2887.png
clip,1,1156,NaN,bear,bear,4-3-10,1156_eid_dnn_4-3-10_bear_10_n02132136_5517.png
clip,1,1157,NaN,dog,knife,8-3-10,1157_eid_dnn_8-3-10_knife_10_n03041632_24114.png
clip,1,1158,NaN,bird,bird,2-3-10,1158_eid_dnn_2-3-10_bird_10_n01534433_26061.png
clip,1,1159,NaN,airplane,airplane,4-3-10,1159_eid_dnn_4-3-10_airplane_10_n02690373_4350.png
clip,1,1160,NaN,oven,oven,4-3-10,1160_eid_dnn_4-3-10_oven_10_n04111531_4012.png
clip,1,1161,NaN,knife,knife,16-3-10,1161_eid_dnn_16-3-10_knife_10_n03041632_32004.png
clip,1,1162,NaN,boat,boat,8-3-10,1162_eid_dnn_8-3-10_boat_10_n03662601_2131.png
clip,1,1163,NaN,knife,elephant,16-3-10,1163_eid_dnn_16-3-10_elephant_10_n02504013_5182.png
clip,1,1164,NaN,cat,airplane,128-3-10,1164_eid_dnn_128-3-10_airplane_10_n02690373_9531.png
clip,1,1165,NaN,knife,keyboard,16-3-10,1165_eid_dnn_16-3-10_keyboard_10_n04505470_1117.png
clip,1,1166,NaN,cat,chair,128-3-10,1166_eid_dnn_128-3-10_chair_10_n02791124_622.png
clip,1,1167,NaN,knife,bicycle,128-3-10,1167_eid_dnn_128-3-10_bicycle_10_n03792782_5494.png
clip,1,1168,NaN,keyboard,keyboard,1-3-10,1168_eid_dnn_1-3-10_keyboard_10_n03085013_17256.png
clip,1,1169,NaN,knife,cat,16-3-10,1169_eid_dnn_16-3-10_cat_10_n02124075_2068.png
clip,1,1170,NaN,knife,boat,32-3-10,1170_eid_dnn_32-3-10_boat_10_n03662601_23409.png
clip,1,1171,NaN,knife,car,128-3-10,1171_eid_dnn_128-3-10_car_10_n04285008_4069.png
clip,1,1172,NaN,knife,truck,64-3-10,1172_eid_dnn_64-3-10_truck_10_n04467665_79576.png
clip,1,1173,NaN,bear,bear,16-3-10,1173_eid_dnn_16-3-10_bear_10_n02133161_2400.png
clip,1,1174,NaN,knife,chair,16-3-10,1174_eid_dnn_16-3-10_chair_10_n04099969_3623.png
clip,1,1175,NaN,cat,keyboard,16-3-10,1175_eid_dnn_16-3-10_keyboard_10_n03085013_21649.png
clip,1,1176,NaN,knife,cat,32-3-10,1176_eid_dnn_32-3-10_cat_10_n02123597_10214.png
clip,1,1177,NaN,knife,dog,64-3-10,1177_eid_dnn_64-3-10_dog_10_n02101388_438.png
clip,1,1178,NaN,chair,clock,4-3-10,1178_eid_dnn_4-3-10_clock_10_n04548280_2522.png
clip,1,1179,NaN,knife,cat,128-3-10,1179_eid_dnn_128-3-10_cat_10_n02123394_141.png
clip,1,1180,NaN,boat,boat,8-3-10,1180_eid_dnn_8-3-10_boat_10_n02951358_4128.png
