subj,session,trial,rt,object_response,category,condition,imagename
dino_v8,1,1,NaN,bicycle,knife,true,0001_fc_dnn_true_knife_35_n03041632_86251.png
dino_v8,1,2,NaN,airplane,car,false,0002_fc_dnn_false_car_35_n03100240_16866.png
dino_v8,1,3,NaN,bottle,keyboard,false,0003_fc_dnn_false_keyboard_35_n03085013_21127.png
dino_v8,1,4,NaN,car,truck,true,0004_fc_dnn_true_truck_35_n03417042_10694.png
dino_v8,1,5,NaN,cat,bird,true,0005_fc_dnn_true_bird_35_n01614925_1962.png
dino_v8,1,6,NaN,bicycle,knife,false,0006_fc_dnn_false_knife_35_n03041632_99875.png
dino_v8,1,7,NaN,oven,bicycle,true,0007_fc_dnn_true_bicycle_35_n03792782_14935.png
dino_v8,1,8,NaN,airplane,elephant,false,0008_fc_dnn_false_elephant_35_n02504013_5027.png
dino_v8,1,9,NaN,knife,dog,false,0009_fc_dnn_false_dog_35_n02090721_129.png
dino_v8,1,10,NaN,oven,airplane,true,0010_fc_dnn_true_airplane_35_n02690373_9241.png
dino_v8,1,11,NaN,knife,truck,true,0011_fc_dnn_true_truck_35_n04467665_62080.png
dino_v8,1,12,NaN,boat,keyboard,true,0012_fc_dnn_true_keyboard_35_n04505470_2669.png
dino_v8,1,13,NaN,clock,oven,false,0013_fc_dnn_false_oven_35_n04111531_688.png
dino_v8,1,14,NaN,airplane,car,true,0014_fc_dnn_true_car_35_n03100240_21982.png
dino_v8,1,15,NaN,cat,bicycle,true,0015_fc_dnn_true_bicycle_35_n02835271_4191.png
dino_v8,1,16,NaN,clock,car,true,0016_fc_dnn_true_car_35_n02814533_25278.png
dino_v8,1,17,NaN,oven,knife,false,0017_fc_dnn_false_knife_35_n03041632_23087.png
dino_v8,1,18,NaN,cat,clock,true,0018_fc_dnn_true_clock_35_n03196217_11252.png
dino_v8,1,19,NaN,elephant,boat,false,0019_fc_dnn_false_boat_35_n04273569_2040.png
dino_v8,1,20,NaN,chair,knife,true,0020_fc_dnn_true_knife_35_n03041632_84869.png
dino_v8,1,21,NaN,bird,clock,true,0021_fc_dnn_true_clock_35_n04548280_503.png
dino_v8,1,22,NaN,car,truck,false,0022_fc_dnn_false_truck_35_n03417042_10654.png
dino_v8,1,23,NaN,clock,boat,true,0023_fc_dnn_true_boat_35_n03344393_2919.png
dino_v8,1,24,NaN,bicycle,chair,false,0024_fc_dnn_false_chair_35_n04099969_7718.png
dino_v8,1,25,NaN,bottle,oven,true,0025_fc_dnn_true_oven_35_n04111531_3477.png
dino_v8,1,26,NaN,chair,dog,false,0026_fc_dnn_false_dog_35_n02113712_913.png
dino_v8,1,27,NaN,bicycle,chair,false,0027_fc_dnn_false_chair_35_n02791124_13701.png
dino_v8,1,28,NaN,cat,airplane,true,0028_fc_dnn_true_airplane_35_n02690373_8538.png
dino_v8,1,29,NaN,bicycle,knife,true,0029_fc_dnn_true_knife_35_n03041632_98864.png
dino_v8,1,30,NaN,elephant,clock,false,0030_fc_dnn_false_clock_35_n04548280_5466.png
dino_v8,1,31,NaN,bicycle,keyboard,true,0031_fc_dnn_true_keyboard_35_n04505470_4033.png
dino_v8,1,32,NaN,chair,boat,false,0032_fc_dnn_false_boat_35_n03344393_7503.png
dino_v8,1,33,NaN,chair,bottle,false,0033_fc_dnn_false_bottle_35_n02823428_3402.png
dino_v8,1,34,NaN,clock,boat,true,0034_fc_dnn_true_boat_35_n03662601_15766.png
dino_v8,1,35,NaN,bicycle,dog,true,0035_fc_dnn_true_dog_35_n02097047_1351.png
dino_v8,1,36,NaN,clock,keyboard,true,0036_fc_dnn_true_keyboard_35_n03085013_23562.png
dino_v8,1,37,NaN,boat,clock,false,0037_fc_dnn_false_clock_35_n04548280_7872.png
dino_v8,1,38,NaN,knife,dog,false,0038_fc_dnn_false_dog_35_n02106166_16884.png
dino_v8,1,39,NaN,cat,oven,true,0039_fc_dnn_true_oven_35_n04111531_3353.png
dino_v8,1,40,NaN,elephant,knife,false,0040_fc_dnn_false_knife_35_n03041632_46185.png
dino_v8,1,41,NaN,car,knife,true,0041_fc_dnn_true_knife_35_n03041632_14766.png
dino_v8,1,42,NaN,bicycle,chair,true,0042_fc_dnn_true_chair_35_n02791124_2150.png
dino_v8,1,43,NaN,clock,elephant,false,0043_fc_dnn_false_elephant_35_n02504458_4631.png
dino_v8,1,44,NaN,boat,chair,false,0044_fc_dnn_false_chair_35_n03376595_3223.png
dino_v8,1,45,NaN,airplane,car,false,0045_fc_dnn_false_car_35_n03100240_5399.png
dino_v8,1,46,NaN,elephant,bottle,true,0046_fc_dnn_true_bottle_35_n04557648_2512.png
dino_v8,1,47,NaN,boat,bicycle,true,0047_fc_dnn_true_bicycle_35_n03792782_8098.png
dino_v8,1,48,NaN,elephant,bear,true,0048_fc_dnn_true_bear_35_n02134418_11557.png
dino_v8,1,49,NaN,airplane,knife,true,0049_fc_dnn_true_knife_35_n03041632_45569.png
dino_v8,1,50,NaN,bicycle,bicycle,false,0050_fc_dnn_false_bicycle_35_n03792782_4740.png
dino_v8,1,51,NaN,elephant,boat,false,0051_fc_dnn_false_boat_35_n03662601_25404.png
dino_v8,1,52,NaN,chair,bird,false,0052_fc_dnn_false_bird_35_n01796340_4853.png
dino_v8,1,53,NaN,keyboard,clock,true,0053_fc_dnn_true_clock_35_n03196217_5888.png
dino_v8,1,54,NaN,cat,bicycle,true,0054_fc_dnn_true_bicycle_35_n02835271_12871.png
dino_v8,1,55,NaN,cat,keyboard,false,0055_fc_dnn_false_keyboard_35_n03085013_28584.png
dino_v8,1,56,NaN,oven,cat,true,0056_fc_dnn_true_cat_35_n02123159_6184.png
dino_v8,1,57,NaN,cat,bicycle,true,0057_fc_dnn_true_bicycle_35_n02835271_7592.png
dino_v8,1,58,NaN,airplane,elephant,false,0058_fc_dnn_false_elephant_35_n02504458_3205.png
dino_v8,1,59,NaN,airplane,cat,false,0059_fc_dnn_false_cat_35_n02124075_7880.png
dino_v8,1,60,NaN,knife,truck,false,0060_fc_dnn_false_truck_35_n04467665_2240.png
dino_v8,1,61,NaN,bottle,bottle,true,0061_fc_dnn_true_bottle_35_n04560804_13316.png
dino_v8,1,62,NaN,keyboard,airplane,false,0062_fc_dnn_false_airplane_35_n02690373_3821.png
dino_v8,1,63,NaN,clock,knife,true,0063_fc_dnn_true_knife_35_n03041632_17285.png
dino_v8,1,64,NaN,bear,bottle,false,0064_fc_dnn_false_bottle_35_n02823428_10942.png
dino_v8,1,65,NaN,oven,bicycle,true,0065_fc_dnn_true_bicycle_35_n02835271_3642.png
dino_v8,1,66,NaN,chair,knife,true,0066_fc_dnn_true_knife_35_n03041632_16172.png
dino_v8,1,67,NaN,car,bottle,false,0067_fc_dnn_false_bottle_35_n04560804_2448.png
dino_v8,1,68,NaN,airplane,oven,false,0068_fc_dnn_false_oven_35_n04111531_4452.png
dino_v8,1,69,NaN,bicycle,keyboard,false,0069_fc_dnn_false_keyboard_35_n04505470_912.png
dino_v8,1,70,NaN,bottle,cat,false,0070_fc_dnn_false_cat_35_n02123045_7167.png
dino_v8,1,71,NaN,oven,bicycle,false,0071_fc_dnn_false_bicycle_35_n03792782_8333.png
dino_v8,1,72,NaN,keyboard,dog,false,0072_fc_dnn_false_dog_35_n02107683_2904.png
dino_v8,1,73,NaN,bicycle,bottle,true,0073_fc_dnn_true_bottle_35_n04591713_3409.png
dino_v8,1,74,NaN,keyboard,bottle,false,0074_fc_dnn_false_bottle_35_n04560804_564.png
dino_v8,1,75,NaN,car,truck,false,0075_fc_dnn_false_truck_35_n03796401_6503.png
dino_v8,1,76,NaN,elephant,oven,true,0076_fc_dnn_true_oven_35_n04111531_13590.png
dino_v8,1,77,NaN,knife,bird,false,0077_fc_dnn_false_bird_35_n02018795_7504.png
dino_v8,1,78,NaN,bottle,car,false,0078_fc_dnn_false_car_35_n03100240_6626.png
dino_v8,1,79,NaN,car,bear,false,0079_fc_dnn_false_bear_35_n02134418_4364.png
dino_v8,1,80,NaN,oven,knife,false,0080_fc_dnn_false_knife_35_n03041632_8051.png
dino_v8,1,81,NaN,knife,airplane,true,0081_fc_dnn_true_airplane_35_n02690373_1434.png
dino_v8,1,82,NaN,bear,clock,true,0082_fc_dnn_true_clock_35_n04548280_5408.png
dino_v8,1,83,NaN,airplane,cat,false,0083_fc_dnn_false_cat_35_n02123597_3916.png
dino_v8,1,84,NaN,keyboard,clock,false,0084_fc_dnn_false_clock_35_n04548280_4542.png
dino_v8,1,85,NaN,oven,car,true,0085_fc_dnn_true_car_35_n04285008_14161.png
dino_v8,1,86,NaN,knife,airplane,false,0086_fc_dnn_false_airplane_35_n02690373_7279.png
dino_v8,1,87,NaN,airplane,bear,true,0087_fc_dnn_true_bear_35_n02132136_11640.png
dino_v8,1,88,NaN,boat,airplane,true,0088_fc_dnn_true_airplane_35_n02690373_8350.png
dino_v8,1,89,NaN,airplane,boat,true,0089_fc_dnn_true_boat_35_n04273569_30568.png
dino_v8,1,90,NaN,boat,dog,true,0090_fc_dnn_true_dog_35_n02100583_19533.png
dino_v8,1,91,NaN,bicycle,knife,true,0091_fc_dnn_true_knife_35_n03041632_965.png
dino_v8,1,92,NaN,car,elephant,false,0092_fc_dnn_false_elephant_35_n02504458_6109.png
dino_v8,1,93,NaN,airplane,oven,true,0093_fc_dnn_true_oven_35_n04111531_10093.png
dino_v8,1,94,NaN,keyboard,clock,true,0094_fc_dnn_true_clock_35_n03196217_8221.png
dino_v8,1,95,NaN,car,bicycle,false,0095_fc_dnn_false_bicycle_35_n03792782_828.png
dino_v8,1,96,NaN,chair,knife,true,0096_fc_dnn_true_knife_35_n03041632_7090.png
dino_v8,1,97,NaN,airplane,bear,false,0097_fc_dnn_false_bear_35_n02134084_14260.png
dino_v8,1,98,NaN,airplane,bear,false,0098_fc_dnn_false_bear_35_n02132136_10988.png
dino_v8,1,99,NaN,knife,keyboard,false,0099_fc_dnn_false_keyboard_35_n03085013_22980.png
dino_v8,1,100,NaN,bicycle,bottle,false,0100_fc_dnn_false_bottle_35_n04557648_3673.png
dino_v8,1,101,NaN,knife,airplane,true,0101_fc_dnn_true_airplane_35_n02690373_1360.png
dino_v8,1,102,NaN,airplane,oven,true,0102_fc_dnn_true_oven_35_n04111531_6415.png
dino_v8,1,103,NaN,oven,knife,false,0103_fc_dnn_false_knife_35_n03041632_32054.png
dino_v8,1,104,NaN,boat,chair,false,0104_fc_dnn_false_chair_35_n03376595_9136.png
dino_v8,1,105,NaN,airplane,keyboard,false,0105_fc_dnn_false_keyboard_35_n03085013_21266.png
dino_v8,1,106,NaN,boat,bicycle,true,0106_fc_dnn_true_bicycle_35_n02835271_6137.png
dino_v8,1,107,NaN,airplane,car,false,0107_fc_dnn_false_car_35_n04285008_14689.png
dino_v8,1,108,NaN,knife,truck,false,0108_fc_dnn_false_truck_35_n04467665_16276.png
dino_v8,1,109,NaN,bear,chair,false,0109_fc_dnn_false_chair_35_n03376595_787.png
dino_v8,1,110,NaN,boat,boat,false,0110_fc_dnn_false_boat_35_n04612504_41355.png
dino_v8,1,111,NaN,knife,elephant,true,0111_fc_dnn_true_elephant_35_n02504458_174.png
dino_v8,1,112,NaN,elephant,cat,true,0112_fc_dnn_true_cat_35_n02125311_6746.png
dino_v8,1,113,NaN,boat,keyboard,false,0113_fc_dnn_false_keyboard_35_n03085013_23287.png
dino_v8,1,114,NaN,bicycle,clock,true,0114_fc_dnn_true_clock_35_n04548280_8071.png
dino_v8,1,115,NaN,car,oven,false,0115_fc_dnn_false_oven_35_n04111531_14543.png
dino_v8,1,116,NaN,airplane,car,false,0116_fc_dnn_false_car_35_n03100240_10791.png
dino_v8,1,117,NaN,cat,airplane,true,0117_fc_dnn_true_airplane_35_n02690373_2619.png
dino_v8,1,118,NaN,clock,keyboard,true,0118_fc_dnn_true_keyboard_35_n04505470_3864.png
dino_v8,1,119,NaN,chair,dog,true,0119_fc_dnn_true_dog_35_n02097658_4387.png
dino_v8,1,120,NaN,bicycle,clock,true,0120_fc_dnn_true_clock_35_n04548280_309.png
dino_v8,1,121,NaN,oven,dog,true,0121_fc_dnn_true_dog_35_n02108000_5247.png
dino_v8,1,122,NaN,chair,keyboard,false,0122_fc_dnn_false_keyboard_35_n04505470_4411.png
dino_v8,1,123,NaN,clock,truck,false,0123_fc_dnn_false_truck_35_n03417042_2155.png
dino_v8,1,124,NaN,airplane,bear,false,0124_fc_dnn_false_bear_35_n02132136_4237.png
dino_v8,1,125,NaN,oven,bird,false,0125_fc_dnn_false_bird_35_n01843065_2350.png
dino_v8,1,126,NaN,oven,knife,false,0126_fc_dnn_false_knife_35_n03041632_51225.png
dino_v8,1,127,NaN,knife,airplane,false,0127_fc_dnn_false_airplane_35_n02690373_2095.png
dino_v8,1,128,NaN,bicycle,clock,true,0128_fc_dnn_true_clock_35_n02708093_1775.png
dino_v8,1,129,NaN,airplane,elephant,true,0129_fc_dnn_true_elephant_35_n02504458_7950.png
dino_v8,1,130,NaN,chair,boat,true,0130_fc_dnn_true_boat_35_n03662601_1926.png
dino_v8,1,131,NaN,clock,elephant,true,0131_fc_dnn_true_elephant_35_n02504458_6721.png
dino_v8,1,132,NaN,clock,bicycle,true,0132_fc_dnn_true_bicycle_35_n02835271_14225.png
dino_v8,1,133,NaN,clock,clock,false,0133_fc_dnn_false_clock_35_n02708093_2744.png
dino_v8,1,134,NaN,cat,clock,true,0134_fc_dnn_true_clock_35_n02708093_275.png
dino_v8,1,135,NaN,clock,knife,false,0135_fc_dnn_false_knife_35_n03041632_25512.png
dino_v8,1,136,NaN,oven,bird,true,0136_fc_dnn_true_bird_35_n01622779_5441.png
dino_v8,1,137,NaN,airplane,oven,false,0137_fc_dnn_false_oven_35_n04111531_14329.png
dino_v8,1,138,NaN,oven,bird,false,0138_fc_dnn_false_bird_35_n02007558_13217.png
dino_v8,1,139,NaN,airplane,cat,true,0139_fc_dnn_true_cat_35_n02123597_7908.png
dino_v8,1,140,NaN,elephant,clock,true,0140_fc_dnn_true_clock_35_n04548280_9828.png
dino_v8,1,141,NaN,keyboard,bird,false,0141_fc_dnn_false_bird_35_n01833805_4819.png
dino_v8,1,142,NaN,bicycle,knife,true,0142_fc_dnn_true_knife_35_n03041632_52929.png
dino_v8,1,143,NaN,knife,truck,false,0143_fc_dnn_false_truck_35_n04467665_2044.png
dino_v8,1,144,NaN,clock,oven,false,0144_fc_dnn_false_oven_35_n04111531_16583.png
dino_v8,1,145,NaN,boat,airplane,true,0145_fc_dnn_true_airplane_35_n02690373_2796.png
dino_v8,1,146,NaN,boat,airplane,false,0146_fc_dnn_false_airplane_35_n02690373_3362.png
dino_v8,1,147,NaN,oven,clock,true,0147_fc_dnn_true_clock_35_n02708093_3759.png
dino_v8,1,148,NaN,bicycle,elephant,true,0148_fc_dnn_true_elephant_35_n02504013_2558.png
dino_v8,1,149,NaN,keyboard,bear,false,0149_fc_dnn_false_bear_35_n02134418_896.png
dino_v8,1,150,NaN,knife,truck,false,0150_fc_dnn_false_truck_35_n04467665_56815.png
dino_v8,1,151,NaN,car,truck,true,0151_fc_dnn_true_truck_35_n03796401_3695.png
dino_v8,1,152,NaN,airplane,dog,true,0152_fc_dnn_true_dog_35_n02107312_197.png
dino_v8,1,153,NaN,airplane,bear,false,0153_fc_dnn_false_bear_35_n02133161_13356.png
dino_v8,1,154,NaN,clock,truck,false,0154_fc_dnn_false_truck_35_n03796401_6923.png
dino_v8,1,155,NaN,boat,elephant,true,0155_fc_dnn_true_elephant_35_n02504458_7660.png
dino_v8,1,156,NaN,cat,bicycle,false,0156_fc_dnn_false_bicycle_35_n02835271_6554.png
dino_v8,1,157,NaN,elephant,boat,true,0157_fc_dnn_true_boat_35_n04273569_2698.png
dino_v8,1,158,NaN,bottle,bottle,true,0158_fc_dnn_true_bottle_35_n03983396_5055.png
dino_v8,1,159,NaN,boat,chair,true,0159_fc_dnn_true_chair_35_n04429376_22811.png
dino_v8,1,160,NaN,boat,knife,false,0160_fc_dnn_false_knife_35_n03041632_5640.png
dino_v8,1,161,NaN,chair,bird,true,0161_fc_dnn_true_bird_35_n01795545_14857.png
dino_v8,1,162,NaN,car,oven,false,0162_fc_dnn_false_oven_35_n04111531_16144.png
dino_v8,1,163,NaN,clock,truck,false,0163_fc_dnn_false_truck_35_n04467665_47050.png
dino_v8,1,164,NaN,bottle,bottle,true,0164_fc_dnn_true_bottle_35_n03937543_8063.png
dino_v8,1,165,NaN,airplane,bear,false,0165_fc_dnn_false_bear_35_n02134084_1655.png
dino_v8,1,166,NaN,airplane,car,false,0166_fc_dnn_false_car_35_n03100240_2425.png
dino_v8,1,167,NaN,cat,keyboard,false,0167_fc_dnn_false_keyboard_35_n03085013_21300.png
dino_v8,1,168,NaN,airplane,bear,false,0168_fc_dnn_false_bear_35_n02132136_2248.png
dino_v8,1,169,NaN,car,knife,false,0169_fc_dnn_false_knife_35_n03041632_27832.png
dino_v8,1,170,NaN,bicycle,keyboard,true,0170_fc_dnn_true_keyboard_35_n04505470_4682.png
dino_v8,1,171,NaN,oven,truck,false,0171_fc_dnn_false_truck_35_n03417042_12908.png
dino_v8,1,172,NaN,truck,elephant,false,0172_fc_dnn_false_elephant_35_n02504013_2148.png
dino_v8,1,173,NaN,oven,boat,true,0173_fc_dnn_true_boat_35_n02951358_20379.png
dino_v8,1,174,NaN,car,cat,true,0174_fc_dnn_true_cat_35_n02123394_6521.png
dino_v8,1,175,NaN,chair,boat,true,0175_fc_dnn_true_boat_35_n03662601_9602.png
dino_v8,1,176,NaN,cat,clock,true,0176_fc_dnn_true_clock_35_n04548280_3997.png
dino_v8,1,177,NaN,airplane,car,false,0177_fc_dnn_false_car_35_n03100240_12694.png
dino_v8,1,178,NaN,cat,bird,false,0178_fc_dnn_false_bird_35_n02002556_25052.png
dino_v8,1,179,NaN,keyboard,chair,true,0179_fc_dnn_true_chair_35_n04429376_22734.png
dino_v8,1,180,NaN,bottle,boat,true,0180_fc_dnn_true_boat_35_n04612504_5334.png
dino_v8,1,181,NaN,cat,keyboard,true,0181_fc_dnn_true_keyboard_35_n03085013_15484.png
dino_v8,1,182,NaN,chair,bear,true,0182_fc_dnn_true_bear_35_n02134418_1809.png
dino_v8,1,183,NaN,chair,bottle,true,0183_fc_dnn_true_bottle_35_n04560804_6392.png
dino_v8,1,184,NaN,car,boat,false,0184_fc_dnn_false_boat_35_n02951358_29495.png
dino_v8,1,185,NaN,oven,dog,false,0185_fc_dnn_false_dog_35_n02086646_8449.png
dino_v8,1,186,NaN,oven,bird,true,0186_fc_dnn_true_bird_35_n02037110_4043.png
dino_v8,1,187,NaN,boat,elephant,true,0187_fc_dnn_true_elephant_35_n02504458_4819.png
dino_v8,1,188,NaN,car,bird,true,0188_fc_dnn_true_bird_35_n01829413_282.png
dino_v8,1,189,NaN,boat,bird,false,0189_fc_dnn_false_bird_35_n02007558_22160.png
dino_v8,1,190,NaN,knife,truck,false,0190_fc_dnn_false_truck_35_n03417042_3066.png
dino_v8,1,191,NaN,boat,boat,true,0191_fc_dnn_true_boat_35_n04612504_254.png
dino_v8,1,192,NaN,elephant,keyboard,false,0192_fc_dnn_false_keyboard_35_n03085013_20704.png
dino_v8,1,193,NaN,bicycle,chair,true,0193_fc_dnn_true_chair_35_n03376595_3015.png
dino_v8,1,194,NaN,bicycle,bottle,false,0194_fc_dnn_false_bottle_35_n03983396_3782.png
dino_v8,1,195,NaN,oven,bird,false,0195_fc_dnn_false_bird_35_n01592084_4087.png
dino_v8,1,196,NaN,chair,bird,false,0196_fc_dnn_false_bird_35_n02013706_651.png
dino_v8,1,197,NaN,bicycle,keyboard,true,0197_fc_dnn_true_keyboard_35_n04505470_2825.png
dino_v8,1,198,NaN,airplane,cat,false,0198_fc_dnn_false_cat_35_n02123597_23346.png
dino_v8,1,199,NaN,airplane,cat,false,0199_fc_dnn_false_cat_35_n02124075_3592.png
dino_v8,1,200,NaN,cat,airplane,false,0200_fc_dnn_false_airplane_35_n02690373_5415.png
dino_v8,1,201,NaN,airplane,cat,true,0201_fc_dnn_true_cat_35_n02123597_4591.png
dino_v8,1,202,NaN,airplane,elephant,false,0202_fc_dnn_false_elephant_35_n02504013_2228.png
dino_v8,1,203,NaN,chair,knife,false,0203_fc_dnn_false_knife_35_n03041632_47743.png
dino_v8,1,204,NaN,cat,bear,false,0204_fc_dnn_false_bear_35_n02134418_1105.png
dino_v8,1,205,NaN,bicycle,bottle,true,0205_fc_dnn_true_bottle_35_n04591713_1174.png
dino_v8,1,206,NaN,clock,keyboard,true,0206_fc_dnn_true_keyboard_35_n04505470_8544.png
dino_v8,1,207,NaN,car,bear,true,0207_fc_dnn_true_bear_35_n02134418_379.png
dino_v8,1,208,NaN,oven,knife,false,0208_fc_dnn_false_knife_35_n03041632_33198.png
dino_v8,1,209,NaN,keyboard,bear,true,0209_fc_dnn_true_bear_35_n02134084_4490.png
dino_v8,1,210,NaN,oven,car,true,0210_fc_dnn_true_car_35_n02814533_23592.png
dino_v8,1,211,NaN,boat,dog,false,0211_fc_dnn_false_dog_35_n02102973_7095.png
dino_v8,1,212,NaN,airplane,elephant,true,0212_fc_dnn_true_elephant_35_n02504013_3810.png
dino_v8,1,213,NaN,car,truck,false,0213_fc_dnn_false_truck_35_n03417042_28742.png
dino_v8,1,214,NaN,car,bicycle,false,0214_fc_dnn_false_bicycle_35_n03792782_4382.png
dino_v8,1,215,NaN,boat,keyboard,false,0215_fc_dnn_false_keyboard_35_n04505470_2868.png
dino_v8,1,216,NaN,airplane,bear,true,0216_fc_dnn_true_bear_35_n02132136_4817.png
dino_v8,1,217,NaN,cat,bicycle,true,0217_fc_dnn_true_bicycle_35_n03792782_1989.png
dino_v8,1,218,NaN,car,truck,true,0218_fc_dnn_true_truck_35_n03417042_4883.png
dino_v8,1,219,NaN,cat,bicycle,true,0219_fc_dnn_true_bicycle_35_n03792782_6614.png
dino_v8,1,220,NaN,airplane,car,true,0220_fc_dnn_true_car_35_n04285008_8581.png
dino_v8,1,221,NaN,knife,truck,true,0221_fc_dnn_true_truck_35_n04467665_22051.png
dino_v8,1,222,NaN,boat,keyboard,true,0222_fc_dnn_true_keyboard_35_n04505470_4516.png
dino_v8,1,223,NaN,oven,clock,true,0223_fc_dnn_true_clock_35_n02708093_3355.png
dino_v8,1,224,NaN,bicycle,chair,false,0224_fc_dnn_false_chair_35_n02791124_11404.png
dino_v8,1,225,NaN,chair,boat,true,0225_fc_dnn_true_boat_35_n03344393_1145.png
dino_v8,1,226,NaN,chair,keyboard,false,0226_fc_dnn_false_keyboard_35_n04505470_4627.png
dino_v8,1,227,NaN,bicycle,chair,true,0227_fc_dnn_true_chair_35_n03376595_4354.png
dino_v8,1,228,NaN,chair,keyboard,false,0228_fc_dnn_false_keyboard_35_n03085013_3231.png
dino_v8,1,229,NaN,airplane,car,false,0229_fc_dnn_false_car_35_n03100240_7454.png
dino_v8,1,230,NaN,bicycle,chair,false,0230_fc_dnn_false_chair_35_n03376595_4212.png
dino_v8,1,231,NaN,cat,airplane,true,0231_fc_dnn_true_airplane_35_n02690373_4175.png
dino_v8,1,232,NaN,elephant,bird,false,0232_fc_dnn_false_bird_35_n01614925_19918.png
dino_v8,1,233,NaN,bicycle,dog,false,0233_fc_dnn_false_dog_35_n02086240_1183.png
dino_v8,1,234,NaN,boat,car,false,0234_fc_dnn_false_car_35_n02814533_1344.png
dino_v8,1,235,NaN,cat,bottle,true,0235_fc_dnn_true_bottle_35_n03983396_1321.png
dino_v8,1,236,NaN,boat,cat,true,0236_fc_dnn_true_cat_35_n02123597_6291.png
dino_v8,1,237,NaN,airplane,airplane,true,0237_fc_dnn_true_airplane_35_n02690373_7698.png
dino_v8,1,238,NaN,keyboard,airplane,false,0238_fc_dnn_false_airplane_35_n02690373_4191.png
dino_v8,1,239,NaN,car,bear,true,0239_fc_dnn_true_bear_35_n02134418_6204.png
dino_v8,1,240,NaN,airplane,bear,true,0240_fc_dnn_true_bear_35_n02132136_14829.png
dino_v8,1,241,NaN,airplane,car,false,0241_fc_dnn_false_car_35_n04285008_2409.png
dino_v8,1,242,NaN,cat,bird,true,0242_fc_dnn_true_bird_35_n02037110_3761.png
dino_v8,1,243,NaN,airplane,boat,false,0243_fc_dnn_false_boat_35_n02951358_3067.png
dino_v8,1,244,NaN,bicycle,chair,false,0244_fc_dnn_false_chair_35_n03376595_14748.png
dino_v8,1,245,NaN,airplane,elephant,true,0245_fc_dnn_true_elephant_35_n02504458_5951.png
dino_v8,1,246,NaN,boat,clock,false,0246_fc_dnn_false_clock_35_n02708093_2006.png
dino_v8,1,247,NaN,bottle,car,false,0247_fc_dnn_false_car_35_n03100240_18646.png
dino_v8,1,248,NaN,bicycle,bicycle,false,0248_fc_dnn_false_bicycle_35_n03792782_5864.png
dino_v8,1,249,NaN,bicycle,chair,false,0249_fc_dnn_false_chair_35_n04429376_36830.png
dino_v8,1,250,NaN,elephant,boat,true,0250_fc_dnn_true_boat_35_n04273569_9282.png
dino_v8,1,251,NaN,car,bird,true,0251_fc_dnn_true_bird_35_n01622779_1609.png
dino_v8,1,252,NaN,bicycle,dog,true,0252_fc_dnn_true_dog_35_n02088094_9498.png
dino_v8,1,253,NaN,airplane,car,true,0253_fc_dnn_true_car_35_n04285008_5525.png
dino_v8,1,254,NaN,airplane,knife,true,0254_fc_dnn_true_knife_35_n03041632_29343.png
dino_v8,1,255,NaN,oven,knife,true,0255_fc_dnn_true_knife_35_n03041632_86338.png
dino_v8,1,256,NaN,bicycle,keyboard,false,0256_fc_dnn_false_keyboard_35_n03085013_20691.png
dino_v8,1,257,NaN,airplane,cat,true,0257_fc_dnn_true_cat_35_n02124075_1957.png
dino_v8,1,258,NaN,keyboard,bear,false,0258_fc_dnn_false_bear_35_n02134418_195.png
dino_v8,1,259,NaN,clock,chair,true,0259_fc_dnn_true_chair_35_n02791124_1376.png
dino_v8,1,260,NaN,airplane,elephant,false,0260_fc_dnn_false_elephant_35_n02504458_8060.png
dino_v8,1,261,NaN,car,oven,false,0261_fc_dnn_false_oven_35_n04111531_6479.png
dino_v8,1,262,NaN,elephant,bear,true,0262_fc_dnn_true_bear_35_n02132136_4070.png
dino_v8,1,263,NaN,airplane,cat,false,0263_fc_dnn_false_cat_35_n02123597_1153.png
dino_v8,1,264,NaN,knife,truck,false,0264_fc_dnn_false_truck_35_n04467665_49656.png
dino_v8,1,265,NaN,airplane,dog,true,0265_fc_dnn_true_dog_35_n02108915_10239.png
dino_v8,1,266,NaN,airplane,chair,false,0266_fc_dnn_false_chair_35_n04429376_6835.png
dino_v8,1,267,NaN,clock,truck,true,0267_fc_dnn_true_truck_35_n04467665_54079.png
dino_v8,1,268,NaN,bicycle,clock,false,0268_fc_dnn_false_clock_35_n03196217_4464.png
dino_v8,1,269,NaN,knife,dog,true,0269_fc_dnn_true_dog_35_n02102318_9359.png
dino_v8,1,270,NaN,cat,bicycle,true,0270_fc_dnn_true_bicycle_35_n03792782_12578.png
dino_v8,1,271,NaN,cat,bicycle,true,0271_fc_dnn_true_bicycle_35_n02835271_12752.png
dino_v8,1,272,NaN,car,oven,true,0272_fc_dnn_true_oven_35_n04111531_20056.png
dino_v8,1,273,NaN,car,oven,true,0273_fc_dnn_true_oven_35_n04111531_12510.png
dino_v8,1,274,NaN,airplane,oven,false,0274_fc_dnn_false_oven_35_n04111531_11079.png
dino_v8,1,275,NaN,airplane,cat,true,0275_fc_dnn_true_cat_35_n02124075_4377.png
dino_v8,1,276,NaN,truck,knife,true,0276_fc_dnn_true_knife_35_n03041632_20517.png
dino_v8,1,277,NaN,clock,knife,false,0277_fc_dnn_false_knife_35_n03041632_362.png
dino_v8,1,278,NaN,oven,airplane,false,0278_fc_dnn_false_airplane_35_n02690373_6807.png
dino_v8,1,279,NaN,airplane,elephant,false,0279_fc_dnn_false_elephant_35_n02504013_1494.png
dino_v8,1,280,NaN,car,oven,false,0280_fc_dnn_false_oven_35_n04111531_3181.png
dino_v8,1,281,NaN,airplane,truck,false,0281_fc_dnn_false_truck_35_n03796401_6727.png
dino_v8,1,282,NaN,knife,dog,true,0282_fc_dnn_true_dog_35_n02113023_6956.png
dino_v8,1,283,NaN,bicycle,elephant,false,0283_fc_dnn_false_elephant_35_n02504013_1519.png
dino_v8,1,284,NaN,car,oven,false,0284_fc_dnn_false_oven_35_n04111531_8082.png
dino_v8,1,285,NaN,elephant,oven,false,0285_fc_dnn_false_oven_35_n04111531_550.png
dino_v8,1,286,NaN,airplane,clock,false,0286_fc_dnn_false_clock_35_n02708093_2242.png
dino_v8,1,287,NaN,cat,airplane,true,0287_fc_dnn_true_airplane_35_n02690373_10809.png
dino_v8,1,288,NaN,cat,bird,false,0288_fc_dnn_false_bird_35_n02037110_6501.png
dino_v8,1,289,NaN,knife,airplane,false,0289_fc_dnn_false_airplane_35_n02690373_12756.png
dino_v8,1,290,NaN,boat,bottle,false,0290_fc_dnn_false_bottle_35_n03983396_5413.png
dino_v8,1,291,NaN,keyboard,bird,true,0291_fc_dnn_true_bird_35_n01560419_631.png
dino_v8,1,292,NaN,clock,cat,true,0292_fc_dnn_true_cat_35_n02123394_4734.png
dino_v8,1,293,NaN,keyboard,bottle,true,0293_fc_dnn_true_bottle_35_n03937543_469.png
dino_v8,1,294,NaN,boat,clock,true,0294_fc_dnn_true_clock_35_n04548280_1055.png
dino_v8,1,295,NaN,bicycle,chair,true,0295_fc_dnn_true_chair_35_n02791124_15934.png
dino_v8,1,296,NaN,airplane,keyboard,true,0296_fc_dnn_true_keyboard_35_n03085013_22187.png
dino_v8,1,297,NaN,bear,dog,false,0297_fc_dnn_false_dog_35_n02099601_8560.png
dino_v8,1,298,NaN,car,truck,true,0298_fc_dnn_true_truck_35_n03417042_11091.png
dino_v8,1,299,NaN,chair,bird,true,0299_fc_dnn_true_bird_35_n02013706_7132.png
dino_v8,1,300,NaN,elephant,car,false,0300_fc_dnn_false_car_35_n02814533_4978.png
dino_v8,1,301,NaN,bottle,bear,true,0301_fc_dnn_true_bear_35_n02134418_6244.png
dino_v8,1,302,NaN,cat,bicycle,false,0302_fc_dnn_false_bicycle_35_n03792782_50569.png
dino_v8,1,303,NaN,airplane,car,true,0303_fc_dnn_true_car_35_n03100240_2632.png
dino_v8,1,304,NaN,knife,knife,false,0304_fc_dnn_false_knife_35_n03041632_11285.png
dino_v8,1,305,NaN,bottle,knife,false,0305_fc_dnn_false_knife_35_n03041632_39952.png
dino_v8,1,306,NaN,bicycle,chair,true,0306_fc_dnn_true_chair_35_n04099969_9745.png
dino_v8,1,307,NaN,bottle,car,true,0307_fc_dnn_true_car_35_n03100240_49.png
dino_v8,1,308,NaN,clock,bird,true,0308_fc_dnn_true_bird_35_n01817953_5953.png
dino_v8,1,309,NaN,airplane,bear,false,0309_fc_dnn_false_bear_35_n02134418_5253.png
dino_v8,1,310,NaN,car,bicycle,false,0310_fc_dnn_false_bicycle_35_n03792782_7576.png
dino_v8,1,311,NaN,boat,keyboard,true,0311_fc_dnn_true_keyboard_35_n03085013_5157.png
dino_v8,1,312,NaN,chair,boat,true,0312_fc_dnn_true_boat_35_n03344393_7050.png
dino_v8,1,313,NaN,cat,bicycle,false,0313_fc_dnn_false_bicycle_35_n03792782_51335.png
dino_v8,1,314,NaN,oven,cat,true,0314_fc_dnn_true_cat_35_n02124075_7230.png
dino_v8,1,315,NaN,car,truck,true,0315_fc_dnn_true_truck_35_n04467665_68020.png
dino_v8,1,316,NaN,cat,elephant,true,0316_fc_dnn_true_elephant_35_n02504458_2970.png
dino_v8,1,317,NaN,cat,bicycle,false,0317_fc_dnn_false_bicycle_35_n02835271_2714.png
dino_v8,1,318,NaN,cat,elephant,true,0318_fc_dnn_true_elephant_35_n02504013_3307.png
dino_v8,1,319,NaN,airplane,truck,true,0319_fc_dnn_true_truck_35_n03796401_3940.png
dino_v8,1,320,NaN,clock,chair,false,0320_fc_dnn_false_chair_35_n04429376_5362.png
dino_v8,1,321,NaN,airplane,cat,false,0321_fc_dnn_false_cat_35_n02123159_1165.png
dino_v8,1,322,NaN,keyboard,boat,true,0322_fc_dnn_true_boat_35_n03662601_4665.png
dino_v8,1,323,NaN,airplane,cat,true,0323_fc_dnn_true_cat_35_n02124075_5067.png
dino_v8,1,324,NaN,bicycle,knife,true,0324_fc_dnn_true_knife_35_n03041632_22480.png
dino_v8,1,325,NaN,elephant,bottle,false,0325_fc_dnn_false_bottle_35_n04560804_2539.png
dino_v8,1,326,NaN,oven,oven,true,0326_fc_dnn_true_oven_35_n04111531_8681.png
dino_v8,1,327,NaN,keyboard,car,false,0327_fc_dnn_false_car_35_n03100240_23804.png
dino_v8,1,328,NaN,car,oven,true,0328_fc_dnn_true_oven_35_n04111531_547.png
dino_v8,1,329,NaN,elephant,boat,false,0329_fc_dnn_false_boat_35_n04273569_9873.png
dino_v8,1,330,NaN,airplane,cat,false,0330_fc_dnn_false_cat_35_n02123597_13140.png
dino_v8,1,331,NaN,car,bear,true,0331_fc_dnn_true_bear_35_n02134418_1330.png
dino_v8,1,332,NaN,bicycle,chair,false,0332_fc_dnn_false_chair_35_n04429376_6272.png
dino_v8,1,333,NaN,airplane,bear,false,0333_fc_dnn_false_bear_35_n02134084_22997.png
dino_v8,1,334,NaN,cat,clock,false,0334_fc_dnn_false_clock_35_n03196217_3508.png
dino_v8,1,335,NaN,bicycle,chair,true,0335_fc_dnn_true_chair_35_n02791124_958.png
dino_v8,1,336,NaN,chair,boat,false,0336_fc_dnn_false_boat_35_n03344393_4012.png
dino_v8,1,337,NaN,cat,airplane,true,0337_fc_dnn_true_airplane_35_n02690373_4921.png
dino_v8,1,338,NaN,airplane,cat,false,0338_fc_dnn_false_cat_35_n02125311_28052.png
dino_v8,1,339,NaN,oven,airplane,false,0339_fc_dnn_false_airplane_35_n02690373_1837.png
dino_v8,1,340,NaN,knife,elephant,false,0340_fc_dnn_false_elephant_35_n02504458_5191.png
dino_v8,1,341,NaN,airplane,bird,false,0341_fc_dnn_false_bird_35_n01855672_2187.png
dino_v8,1,342,NaN,bear,clock,true,0342_fc_dnn_true_clock_35_n04548280_7794.png
dino_v8,1,343,NaN,oven,clock,false,0343_fc_dnn_false_clock_35_n03196217_8489.png
dino_v8,1,344,NaN,bottle,knife,false,0344_fc_dnn_false_knife_35_n03041632_21590.png
dino_v8,1,345,NaN,knife,elephant,false,0345_fc_dnn_false_elephant_35_n02504458_1249.png
dino_v8,1,346,NaN,truck,keyboard,false,0346_fc_dnn_false_keyboard_35_n04505470_4549.png
dino_v8,1,347,NaN,airplane,elephant,false,0347_fc_dnn_false_elephant_35_n02504013_3771.png
dino_v8,1,348,NaN,cat,bicycle,true,0348_fc_dnn_true_bicycle_35_n02835271_19552.png
dino_v8,1,349,NaN,airplane,bear,true,0349_fc_dnn_true_bear_35_n02134084_4477.png
dino_v8,1,350,NaN,cat,elephant,false,0350_fc_dnn_false_elephant_35_n02504013_10149.png
dino_v8,1,351,NaN,elephant,boat,true,0351_fc_dnn_true_boat_35_n04273569_709.png
dino_v8,1,352,NaN,clock,car,false,0352_fc_dnn_false_car_35_n03100240_7120.png
dino_v8,1,353,NaN,airplane,boat,false,0353_fc_dnn_false_boat_35_n02951358_12867.png
dino_v8,1,354,NaN,elephant,bird,true,0354_fc_dnn_true_bird_35_n01558993_38999.png
dino_v8,1,355,NaN,oven,bicycle,false,0355_fc_dnn_false_bicycle_35_n03792782_4210.png
dino_v8,1,356,NaN,oven,dog,false,0356_fc_dnn_false_dog_35_n02102318_11997.png
dino_v8,1,357,NaN,bear,clock,false,0357_fc_dnn_false_clock_35_n02708093_6813.png
dino_v8,1,358,NaN,oven,oven,false,0358_fc_dnn_false_oven_35_n04111531_8036.png
dino_v8,1,359,NaN,knife,clock,false,0359_fc_dnn_false_clock_35_n02708093_3454.png
dino_v8,1,360,NaN,elephant,keyboard,true,0360_fc_dnn_true_keyboard_35_n03085013_21641.png
dino_v8,1,361,NaN,bicycle,chair,false,0361_fc_dnn_false_chair_35_n02791124_139.png
dino_v8,1,362,NaN,airplane,bear,false,0362_fc_dnn_false_bear_35_n02134084_6821.png
dino_v8,1,363,NaN,knife,cat,false,0363_fc_dnn_false_cat_35_n02124075_5874.png
dino_v8,1,364,NaN,bicycle,chair,false,0364_fc_dnn_false_chair_35_n04099969_8604.png
dino_v8,1,365,NaN,cat,bicycle,true,0365_fc_dnn_true_bicycle_35_n02835271_15524.png
dino_v8,1,366,NaN,bicycle,chair,false,0366_fc_dnn_false_chair_35_n04429376_55163.png
dino_v8,1,367,NaN,cat,dog,true,0367_fc_dnn_true_dog_35_n02106662_10632.png
dino_v8,1,368,NaN,airplane,car,false,0368_fc_dnn_false_car_35_n03100240_9675.png
dino_v8,1,369,NaN,chair,bird,true,0369_fc_dnn_true_bird_35_n02011460_22291.png
dino_v8,1,370,NaN,elephant,dog,false,0370_fc_dnn_false_dog_35_n02106662_56099.png
dino_v8,1,371,NaN,bicycle,keyboard,false,0371_fc_dnn_false_keyboard_35_n04505470_3970.png
dino_v8,1,372,NaN,knife,boat,false,0372_fc_dnn_false_boat_35_n03662601_32803.png
dino_v8,1,373,NaN,cat,bottle,false,0373_fc_dnn_false_bottle_35_n02823428_4043.png
dino_v8,1,374,NaN,knife,airplane,true,0374_fc_dnn_true_airplane_35_n02690373_5221.png
dino_v8,1,375,NaN,oven,knife,false,0375_fc_dnn_false_knife_35_n03041632_90125.png
dino_v8,1,376,NaN,oven,oven,false,0376_fc_dnn_false_oven_35_n04111531_11230.png
dino_v8,1,377,NaN,elephant,keyboard,true,0377_fc_dnn_true_keyboard_35_n04505470_3002.png
dino_v8,1,378,NaN,cat,bicycle,true,0378_fc_dnn_true_bicycle_35_n02835271_12237.png
dino_v8,1,379,NaN,oven,dog,false,0379_fc_dnn_false_dog_35_n02088238_9947.png
dino_v8,1,380,NaN,car,airplane,false,0380_fc_dnn_false_airplane_35_n02690373_2075.png
dino_v8,1,381,NaN,cat,bicycle,false,0381_fc_dnn_false_bicycle_35_n02835271_12930.png
dino_v8,1,382,NaN,airplane,dog,false,0382_fc_dnn_false_dog_35_n02096294_4609.png
dino_v8,1,383,NaN,bicycle,knife,false,0383_fc_dnn_false_knife_35_n03041632_15754.png
dino_v8,1,384,NaN,boat,bird,true,0384_fc_dnn_true_bird_35_n01819313_5634.png
dino_v8,1,385,NaN,cat,clock,true,0385_fc_dnn_true_clock_35_n02708093_8386.png
dino_v8,1,386,NaN,boat,bottle,false,0386_fc_dnn_false_bottle_35_n04579145_6435.png
dino_v8,1,387,NaN,boat,airplane,true,0387_fc_dnn_true_airplane_35_n02690373_9531.png
dino_v8,1,388,NaN,bear,bottle,true,0388_fc_dnn_true_bottle_35_n04591713_5518.png
dino_v8,1,389,NaN,elephant,airplane,false,0389_fc_dnn_false_airplane_35_n02690373_12896.png
dino_v8,1,390,NaN,airplane,truck,false,0390_fc_dnn_false_truck_35_n03796401_124.png
dino_v8,1,391,NaN,car,bicycle,true,0391_fc_dnn_true_bicycle_35_n03792782_7050.png
dino_v8,1,392,NaN,bicycle,bicycle,true,0392_fc_dnn_true_bicycle_35_n02835271_13729.png
dino_v8,1,393,NaN,knife,bird,false,0393_fc_dnn_false_bird_35_n02027492_3922.png
dino_v8,1,394,NaN,cat,elephant,true,0394_fc_dnn_true_elephant_35_n02504013_9809.png
dino_v8,1,395,NaN,elephant,keyboard,false,0395_fc_dnn_false_keyboard_35_n04505470_5086.png
dino_v8,1,396,NaN,elephant,keyboard,true,0396_fc_dnn_true_keyboard_35_n03085013_19439.png
dino_v8,1,397,NaN,keyboard,airplane,false,0397_fc_dnn_false_airplane_35_n02690373_9926.png
dino_v8,1,398,NaN,knife,elephant,true,0398_fc_dnn_true_elephant_35_n02504458_3197.png
dino_v8,1,399,NaN,airplane,dog,false,0399_fc_dnn_false_dog_35_n02110185_14056.png
dino_v8,1,400,NaN,knife,airplane,true,0400_fc_dnn_true_airplane_35_n02690373_2823.png
dino_v8,1,401,NaN,cat,bicycle,false,0401_fc_dnn_false_bicycle_35_n02835271_14157.png
dino_v8,1,402,NaN,chair,chair,true,0402_fc_dnn_true_chair_35_n03376595_606.png
dino_v8,1,403,NaN,cat,airplane,false,0403_fc_dnn_false_airplane_35_n02690373_1442.png
dino_v8,1,404,NaN,elephant,keyboard,true,0404_fc_dnn_true_keyboard_35_n04505470_10035.png
dino_v8,1,405,NaN,airplane,bear,true,0405_fc_dnn_true_bear_35_n02133161_13278.png
dino_v8,1,406,NaN,clock,bear,true,0406_fc_dnn_true_bear_35_n02134418_2657.png
dino_v8,1,407,NaN,bicycle,bear,false,0407_fc_dnn_false_bear_35_n02133161_12894.png
dino_v8,1,408,NaN,airplane,clock,false,0408_fc_dnn_false_clock_35_n03196217_6195.png
dino_v8,1,409,NaN,cat,bottle,true,0409_fc_dnn_true_bottle_35_n04591713_13349.png
dino_v8,1,410,NaN,airplane,boat,false,0410_fc_dnn_false_boat_35_n04273569_16295.png
dino_v8,1,411,NaN,airplane,elephant,false,0411_fc_dnn_false_elephant_35_n02504013_2672.png
dino_v8,1,412,NaN,airplane,bear,true,0412_fc_dnn_true_bear_35_n02134084_22292.png
dino_v8,1,413,NaN,cat,airplane,false,0413_fc_dnn_false_airplane_35_n02690373_997.png
dino_v8,1,414,NaN,bear,knife,true,0414_fc_dnn_true_knife_35_n03041632_29337.png
dino_v8,1,415,NaN,boat,elephant,true,0415_fc_dnn_true_elephant_35_n02504458_3261.png
dino_v8,1,416,NaN,clock,oven,true,0416_fc_dnn_true_oven_35_n04111531_22120.png
dino_v8,1,417,NaN,car,bear,true,0417_fc_dnn_true_bear_35_n02134418_830.png
dino_v8,1,418,NaN,knife,truck,false,0418_fc_dnn_false_truck_35_n03417042_2124.png
dino_v8,1,419,NaN,oven,bicycle,false,0419_fc_dnn_false_bicycle_35_n02835271_14585.png
dino_v8,1,420,NaN,car,oven,true,0420_fc_dnn_true_oven_35_n04111531_2855.png
dino_v8,1,421,NaN,airplane,cat,false,0421_fc_dnn_false_cat_35_n02123394_4383.png
dino_v8,1,422,NaN,cat,cat,true,0422_fc_dnn_true_cat_35_n02125311_17068.png
dino_v8,1,423,NaN,keyboard,bird,false,0423_fc_dnn_false_bird_35_n01560419_2291.png
dino_v8,1,424,NaN,car,bird,false,0424_fc_dnn_false_bird_35_n01829413_2459.png
dino_v8,1,425,NaN,car,oven,true,0425_fc_dnn_true_oven_35_n04111531_13822.png
dino_v8,1,426,NaN,airplane,bear,false,0426_fc_dnn_false_bear_35_n02133161_5067.png
dino_v8,1,427,NaN,bicycle,chair,false,0427_fc_dnn_false_chair_35_n02791124_885.png
dino_v8,1,428,NaN,boat,dog,true,0428_fc_dnn_true_dog_35_n02107312_7182.png
dino_v8,1,429,NaN,oven,truck,true,0429_fc_dnn_true_truck_35_n04467665_13989.png
dino_v8,1,430,NaN,chair,dog,true,0430_fc_dnn_true_dog_35_n02102480_10232.png
dino_v8,1,431,NaN,bicycle,oven,false,0431_fc_dnn_false_oven_35_n04111531_643.png
dino_v8,1,432,NaN,clock,boat,true,0432_fc_dnn_true_boat_35_n02951358_31514.png
dino_v8,1,433,NaN,elephant,oven,true,0433_fc_dnn_true_oven_35_n04111531_1898.png
dino_v8,1,434,NaN,elephant,car,true,0434_fc_dnn_true_car_35_n03100240_5865.png
dino_v8,1,435,NaN,bicycle,keyboard,true,0435_fc_dnn_true_keyboard_35_n04505470_4369.png
dino_v8,1,436,NaN,oven,cat,false,0436_fc_dnn_false_cat_35_n02123394_1942.png
dino_v8,1,437,NaN,airplane,car,true,0437_fc_dnn_true_car_35_n04285008_2900.png
dino_v8,1,438,NaN,cat,airplane,true,0438_fc_dnn_true_airplane_35_n02690373_10926.png
dino_v8,1,439,NaN,clock,knife,true,0439_fc_dnn_true_knife_35_n03041632_11613.png
dino_v8,1,440,NaN,keyboard,knife,true,0440_fc_dnn_true_knife_35_n03041632_24817.png
dino_v8,1,441,NaN,cat,bicycle,true,0441_fc_dnn_true_bicycle_35_n02835271_3042.png
dino_v8,1,442,NaN,keyboard,dog,true,0442_fc_dnn_true_dog_35_n02102177_7737.png
dino_v8,1,443,NaN,car,oven,true,0443_fc_dnn_true_oven_35_n04111531_21460.png
dino_v8,1,444,NaN,boat,keyboard,false,0444_fc_dnn_false_keyboard_35_n04505470_7388.png
dino_v8,1,445,NaN,elephant,bird,true,0445_fc_dnn_true_bird_35_n01828970_25642.png
dino_v8,1,446,NaN,cat,bicycle,false,0446_fc_dnn_false_bicycle_35_n02835271_608.png
dino_v8,1,447,NaN,elephant,boat,true,0447_fc_dnn_true_boat_35_n04273569_26182.png
dino_v8,1,448,NaN,airplane,cat,false,0448_fc_dnn_false_cat_35_n02123045_9384.png
dino_v8,1,449,NaN,cat,airplane,true,0449_fc_dnn_true_airplane_35_n02690373_9529.png
dino_v8,1,450,NaN,airplane,cat,true,0450_fc_dnn_true_cat_35_n02123597_5081.png
dino_v8,1,451,NaN,car,oven,false,0451_fc_dnn_false_oven_35_n04111531_4998.png
dino_v8,1,452,NaN,bicycle,clock,true,0452_fc_dnn_true_clock_35_n04548280_1245.png
dino_v8,1,453,NaN,cat,dog,true,0453_fc_dnn_true_dog_35_n02104365_8609.png
dino_v8,1,454,NaN,bicycle,clock,false,0454_fc_dnn_false_clock_35_n02708093_6414.png
dino_v8,1,455,NaN,boat,bird,true,0455_fc_dnn_true_bird_35_n01798484_9155.png
dino_v8,1,456,NaN,car,oven,true,0456_fc_dnn_true_oven_35_n04111531_10724.png
dino_v8,1,457,NaN,clock,boat,true,0457_fc_dnn_true_boat_35_n02951358_32687.png
dino_v8,1,458,NaN,oven,bicycle,true,0458_fc_dnn_true_bicycle_35_n02835271_31.png
dino_v8,1,459,NaN,car,bottle,true,0459_fc_dnn_true_bottle_35_n04557648_4420.png
dino_v8,1,460,NaN,airplane,bear,true,0460_fc_dnn_true_bear_35_n02133161_713.png
dino_v8,1,461,NaN,cat,airplane,false,0461_fc_dnn_false_airplane_35_n02690373_5967.png
dino_v8,1,462,NaN,bear,bird,true,0462_fc_dnn_true_bird_35_n01795545_4502.png
dino_v8,1,463,NaN,airplane,cat,true,0463_fc_dnn_true_cat_35_n02124075_11466.png
dino_v8,1,464,NaN,boat,keyboard,true,0464_fc_dnn_true_keyboard_35_n03085013_21769.png
dino_v8,1,465,NaN,oven,car,false,0465_fc_dnn_false_car_35_n03100240_15097.png
dino_v8,1,466,NaN,oven,dog,false,0466_fc_dnn_false_dog_35_n02093647_3072.png
dino_v8,1,467,NaN,boat,bicycle,false,0467_fc_dnn_false_bicycle_35_n02835271_12701.png
dino_v8,1,468,NaN,airplane,bear,false,0468_fc_dnn_false_bear_35_n02134084_3227.png
dino_v8,1,469,NaN,oven,cat,true,0469_fc_dnn_true_cat_35_n02123394_5001.png
dino_v8,1,470,NaN,clock,keyboard,true,0470_fc_dnn_true_keyboard_35_n03085013_6862.png
dino_v8,1,471,NaN,bicycle,chair,true,0471_fc_dnn_true_chair_35_n04099969_45461.png
dino_v8,1,472,NaN,car,bicycle,false,0472_fc_dnn_false_bicycle_35_n03792782_485.png
dino_v8,1,473,NaN,clock,oven,true,0473_fc_dnn_true_oven_35_n04111531_1674.png
dino_v8,1,474,NaN,cat,airplane,true,0474_fc_dnn_true_airplane_35_n02690373_866.png
dino_v8,1,475,NaN,car,oven,false,0475_fc_dnn_false_oven_35_n04111531_9297.png
dino_v8,1,476,NaN,knife,elephant,false,0476_fc_dnn_false_elephant_35_n02504458_6878.png
dino_v8,1,477,NaN,airplane,car,true,0477_fc_dnn_true_car_35_n03100240_3151.png
dino_v8,1,478,NaN,knife,airplane,false,0478_fc_dnn_false_airplane_35_n02690373_6363.png
dino_v8,1,479,NaN,airplane,car,true,0479_fc_dnn_true_car_35_n04285008_15049.png
dino_v8,1,480,NaN,oven,truck,true,0480_fc_dnn_true_truck_35_n04467665_2505.png
dino_v8,1,481,NaN,bicycle,bottle,true,0481_fc_dnn_true_bottle_35_n04591713_4030.png
dino_v8,1,482,NaN,bottle,oven,true,0482_fc_dnn_true_oven_35_n04111531_12929.png
dino_v8,1,483,NaN,elephant,cat,true,0483_fc_dnn_true_cat_35_n02125311_53315.png
dino_v8,1,484,NaN,airplane,dog,true,0484_fc_dnn_true_dog_35_n02087046_4409.png
dino_v8,1,485,NaN,oven,oven,false,0485_fc_dnn_false_oven_35_n04111531_21120.png
dino_v8,1,486,NaN,clock,elephant,false,0486_fc_dnn_false_elephant_35_n02504013_5934.png
dino_v8,1,487,NaN,knife,car,true,0487_fc_dnn_true_car_35_n04285008_3631.png
dino_v8,1,488,NaN,keyboard,clock,true,0488_fc_dnn_true_clock_35_n03196217_7663.png
dino_v8,1,489,NaN,elephant,bicycle,false,0489_fc_dnn_false_bicycle_35_n03792782_801.png
dino_v8,1,490,NaN,airplane,bear,false,0490_fc_dnn_false_bear_35_n02133161_6983.png
dino_v8,1,491,NaN,cat,keyboard,true,0491_fc_dnn_true_keyboard_35_n03085013_20825.png
dino_v8,1,492,NaN,cat,clock,true,0492_fc_dnn_true_clock_35_n03196217_1219.png
dino_v8,1,493,NaN,oven,airplane,true,0493_fc_dnn_true_airplane_35_n02690373_18864.png
dino_v8,1,494,NaN,bottle,airplane,false,0494_fc_dnn_false_airplane_35_n02690373_1019.png
dino_v8,1,495,NaN,chair,bird,true,0495_fc_dnn_true_bird_35_n02013706_10478.png
dino_v8,1,496,NaN,boat,bear,true,0496_fc_dnn_true_bear_35_n02132136_258.png
dino_v8,1,497,NaN,keyboard,chair,false,0497_fc_dnn_false_chair_35_n04099969_16350.png
dino_v8,1,498,NaN,bicycle,chair,true,0498_fc_dnn_true_chair_35_n04099969_16456.png
dino_v8,1,499,NaN,elephant,bottle,false,0499_fc_dnn_false_bottle_35_n03983396_12027.png
dino_v8,1,500,NaN,bicycle,chair,true,0500_fc_dnn_true_chair_35_n02791124_5438.png
dino_v8,1,501,NaN,bicycle,elephant,true,0501_fc_dnn_true_elephant_35_n02504458_4939.png
dino_v8,1,502,NaN,bicycle,keyboard,false,0502_fc_dnn_false_keyboard_35_n04505470_2600.png
dino_v8,1,503,NaN,bicycle,chair,true,0503_fc_dnn_true_chair_35_n03376595_7394.png
dino_v8,1,504,NaN,bicycle,bicycle,false,0504_fc_dnn_false_bicycle_35_n02835271_9772.png
dino_v8,1,505,NaN,airplane,car,true,0505_fc_dnn_true_car_35_n02814533_55937.png
dino_v8,1,506,NaN,knife,airplane,true,0506_fc_dnn_true_airplane_35_n02690373_3920.png
dino_v8,1,507,NaN,bicycle,oven,false,0507_fc_dnn_false_oven_35_n04111531_6400.png
dino_v8,1,508,NaN,oven,truck,false,0508_fc_dnn_false_truck_35_n03417042_4587.png
dino_v8,1,509,NaN,car,knife,true,0509_fc_dnn_true_knife_35_n03041632_31849.png
dino_v8,1,510,NaN,airplane,cat,true,0510_fc_dnn_true_cat_35_n02125311_8541.png
dino_v8,1,511,NaN,knife,airplane,true,0511_fc_dnn_true_airplane_35_n02690373_2162.png
dino_v8,1,512,NaN,bicycle,dog,true,0512_fc_dnn_true_dog_35_n02108551_11297.png
dino_v8,1,513,NaN,airplane,car,true,0513_fc_dnn_true_car_35_n02814533_34396.png
dino_v8,1,514,NaN,cat,elephant,true,0514_fc_dnn_true_elephant_35_n02504013_6431.png
dino_v8,1,515,NaN,oven,bicycle,false,0515_fc_dnn_false_bicycle_35_n03792782_51723.png
dino_v8,1,516,NaN,airplane,dog,false,0516_fc_dnn_false_dog_35_n02093754_5867.png
dino_v8,1,517,NaN,knife,clock,true,0517_fc_dnn_true_clock_35_n04548280_3245.png
dino_v8,1,518,NaN,knife,airplane,true,0518_fc_dnn_true_airplane_35_n02690373_9762.png
dino_v8,1,519,NaN,cat,bird,true,0519_fc_dnn_true_bird_35_n02002724_2909.png
dino_v8,1,520,NaN,airplane,bottle,true,0520_fc_dnn_true_bottle_35_n04557648_10123.png
dino_v8,1,521,NaN,clock,elephant,true,0521_fc_dnn_true_elephant_35_n02504013_5432.png
dino_v8,1,522,NaN,airplane,cat,false,0522_fc_dnn_false_cat_35_n02123597_4998.png
dino_v8,1,523,NaN,airplane,bottle,true,0523_fc_dnn_true_bottle_35_n04557648_11594.png
dino_v8,1,524,NaN,keyboard,clock,false,0524_fc_dnn_false_clock_35_n03196217_2567.png
dino_v8,1,525,NaN,bicycle,truck,false,0525_fc_dnn_false_truck_35_n03796401_9136.png
dino_v8,1,526,NaN,knife,boat,false,0526_fc_dnn_false_boat_35_n03344393_8492.png
dino_v8,1,527,NaN,boat,cat,false,0527_fc_dnn_false_cat_35_n02123159_8267.png
dino_v8,1,528,NaN,bicycle,bottle,false,0528_fc_dnn_false_bottle_35_n04557648_12039.png
dino_v8,1,529,NaN,chair,keyboard,false,0529_fc_dnn_false_keyboard_35_n04505470_2828.png
dino_v8,1,530,NaN,clock,boat,true,0530_fc_dnn_true_boat_35_n02951358_31198.png
dino_v8,1,531,NaN,car,oven,false,0531_fc_dnn_false_oven_35_n04111531_5801.png
dino_v8,1,532,NaN,cat,bicycle,false,0532_fc_dnn_false_bicycle_35_n02835271_9672.png
dino_v8,1,533,NaN,cat,keyboard,false,0533_fc_dnn_false_keyboard_35_n03085013_23865.png
dino_v8,1,534,NaN,bicycle,bottle,true,0534_fc_dnn_true_bottle_35_n04591713_7133.png
dino_v8,1,535,NaN,airplane,car,true,0535_fc_dnn_true_car_35_n04285008_10006.png
dino_v8,1,536,NaN,knife,airplane,true,0536_fc_dnn_true_airplane_35_n02690373_2431.png
dino_v8,1,537,NaN,bicycle,boat,true,0537_fc_dnn_true_boat_35_n04612504_15440.png
dino_v8,1,538,NaN,cat,bicycle,true,0538_fc_dnn_true_bicycle_35_n02835271_5648.png
dino_v8,1,539,NaN,knife,airplane,false,0539_fc_dnn_false_airplane_35_n02690373_3173.png
dino_v8,1,540,NaN,bicycle,oven,false,0540_fc_dnn_false_oven_35_n04111531_82.png
dino_v8,1,541,NaN,bicycle,chair,false,0541_fc_dnn_false_chair_35_n02791124_2057.png
dino_v8,1,542,NaN,truck,elephant,true,0542_fc_dnn_true_elephant_35_n02504458_12175.png
dino_v8,1,543,NaN,knife,boat,false,0543_fc_dnn_false_boat_35_n03344393_6869.png
dino_v8,1,544,NaN,car,truck,false,0544_fc_dnn_false_truck_35_n03417042_1000.png
dino_v8,1,545,NaN,airplane,boat,true,0545_fc_dnn_true_boat_35_n03344393_6890.png
dino_v8,1,546,NaN,keyboard,elephant,false,0546_fc_dnn_false_elephant_35_n02504458_4139.png
dino_v8,1,547,NaN,clock,bear,false,0547_fc_dnn_false_bear_35_n02132136_7231.png
dino_v8,1,548,NaN,car,bird,false,0548_fc_dnn_false_bird_35_n01860187_1815.png
dino_v8,1,549,NaN,car,keyboard,true,0549_fc_dnn_true_keyboard_35_n03085013_18891.png
dino_v8,1,550,NaN,keyboard,bird,false,0550_fc_dnn_false_bird_35_n01828970_2276.png
dino_v8,1,551,NaN,airplane,elephant,false,0551_fc_dnn_false_elephant_35_n02504013_1720.png
dino_v8,1,552,NaN,bicycle,knife,false,0552_fc_dnn_false_knife_35_n03041632_16104.png
dino_v8,1,553,NaN,bicycle,chair,false,0553_fc_dnn_false_chair_35_n03376595_635.png
dino_v8,1,554,NaN,elephant,bottle,true,0554_fc_dnn_true_bottle_35_n03983396_6116.png
dino_v8,1,555,NaN,bottle,dog,true,0555_fc_dnn_true_dog_35_n02113624_2530.png
dino_v8,1,556,NaN,oven,bird,true,0556_fc_dnn_true_bird_35_n01592084_3972.png
dino_v8,1,557,NaN,knife,airplane,true,0557_fc_dnn_true_airplane_35_n02690373_5130.png
dino_v8,1,558,NaN,car,bird,true,0558_fc_dnn_true_bird_35_n01833805_7514.png
dino_v8,1,559,NaN,car,truck,false,0559_fc_dnn_false_truck_35_n03417042_16238.png
dino_v8,1,560,NaN,bicycle,keyboard,true,0560_fc_dnn_true_keyboard_35_n04505470_8620.png
dino_v8,1,561,NaN,airplane,clock,true,0561_fc_dnn_true_clock_35_n03196217_7888.png
dino_v8,1,562,NaN,bicycle,bottle,true,0562_fc_dnn_true_bottle_35_n04591713_5411.png
dino_v8,1,563,NaN,airplane,clock,false,0563_fc_dnn_false_clock_35_n03196217_2639.png
dino_v8,1,564,NaN,bicycle,elephant,true,0564_fc_dnn_true_elephant_35_n02504458_6437.png
dino_v8,1,565,NaN,knife,truck,true,0565_fc_dnn_true_truck_35_n03417042_27586.png
dino_v8,1,566,NaN,keyboard,keyboard,false,0566_fc_dnn_false_keyboard_35_n03085013_24124.png
dino_v8,1,567,NaN,airplane,cat,false,0567_fc_dnn_false_cat_35_n02123597_9663.png
dino_v8,1,568,NaN,airplane,keyboard,true,0568_fc_dnn_true_keyboard_35_n04505470_1833.png
dino_v8,1,569,NaN,airplane,car,true,0569_fc_dnn_true_car_35_n04285008_4109.png
dino_v8,1,570,NaN,oven,bird,false,0570_fc_dnn_false_bird_35_n01558993_869.png
dino_v8,1,571,NaN,clock,truck,true,0571_fc_dnn_true_truck_35_n03796401_6980.png
dino_v8,1,572,NaN,clock,truck,true,0572_fc_dnn_true_truck_35_n03796401_19058.png
dino_v8,1,573,NaN,keyboard,bear,false,0573_fc_dnn_false_bear_35_n02134418_5033.png
dino_v8,1,574,NaN,clock,truck,false,0574_fc_dnn_false_truck_35_n03417042_6204.png
dino_v8,1,575,NaN,boat,bicycle,true,0575_fc_dnn_true_bicycle_35_n03792782_7388.png
dino_v8,1,576,NaN,car,truck,true,0576_fc_dnn_true_truck_35_n03417042_1561.png
dino_v8,1,577,NaN,airplane,elephant,true,0577_fc_dnn_true_elephant_35_n02504458_5501.png
dino_v8,1,578,NaN,clock,boat,true,0578_fc_dnn_true_boat_35_n03662601_34124.png
dino_v8,1,579,NaN,bicycle,knife,false,0579_fc_dnn_false_knife_35_n03041632_37949.png
dino_v8,1,580,NaN,keyboard,airplane,false,0580_fc_dnn_false_airplane_35_n02690373_13585.png
dino_v8,1,581,NaN,keyboard,knife,false,0581_fc_dnn_false_knife_35_n03041632_16932.png
dino_v8,1,582,NaN,bicycle,chair,false,0582_fc_dnn_false_chair_35_n04429376_9501.png
dino_v8,1,583,NaN,keyboard,bird,false,0583_fc_dnn_false_bird_35_n01532829_10530.png
dino_v8,1,584,NaN,boat,oven,false,0584_fc_dnn_false_oven_35_n04111531_1562.png
dino_v8,1,585,NaN,truck,clock,false,0585_fc_dnn_false_clock_35_n02708093_260.png
dino_v8,1,586,NaN,cat,bottle,true,0586_fc_dnn_true_bottle_35_n04579145_1457.png
dino_v8,1,587,NaN,bicycle,chair,true,0587_fc_dnn_true_chair_35_n03376595_9897.png
dino_v8,1,588,NaN,keyboard,bird,true,0588_fc_dnn_true_bird_35_n01601694_4224.png
dino_v8,1,589,NaN,boat,cat,false,0589_fc_dnn_false_cat_35_n02123159_358.png
dino_v8,1,590,NaN,cat,bottle,true,0590_fc_dnn_true_bottle_35_n03983396_11788.png
dino_v8,1,591,NaN,airplane,cat,true,0591_fc_dnn_true_cat_35_n02124075_8341.png
dino_v8,1,592,NaN,keyboard,dog,false,0592_fc_dnn_false_dog_35_n02109525_49924.png
dino_v8,1,593,NaN,knife,oven,false,0593_fc_dnn_false_oven_35_n04111531_797.png
dino_v8,1,594,NaN,cat,bicycle,true,0594_fc_dnn_true_bicycle_35_n02835271_15930.png
dino_v8,1,595,NaN,keyboard,knife,true,0595_fc_dnn_true_knife_35_n03041632_13656.png
dino_v8,1,596,NaN,clock,clock,false,0596_fc_dnn_false_clock_35_n02708093_8104.png
dino_v8,1,597,NaN,clock,truck,true,0597_fc_dnn_true_truck_35_n03796401_3148.png
dino_v8,1,598,NaN,bicycle,bottle,false,0598_fc_dnn_false_bottle_35_n04560804_15263.png
dino_v8,1,599,NaN,keyboard,airplane,true,0599_fc_dnn_true_airplane_35_n02690373_5003.png
dino_v8,1,600,NaN,chair,boat,false,0600_fc_dnn_false_boat_35_n03344393_994.png
dino_v8,1,601,NaN,bicycle,bicycle,true,0601_fc_dnn_true_bicycle_35_n03792782_5959.png
dino_v8,1,602,NaN,airplane,car,false,0602_fc_dnn_false_car_35_n04285008_9383.png
dino_v8,1,603,NaN,knife,clock,true,0603_fc_dnn_true_clock_35_n03196217_5627.png
dino_v8,1,604,NaN,chair,bird,true,0604_fc_dnn_true_bird_35_n01534433_13846.png
dino_v8,1,605,NaN,clock,dog,true,0605_fc_dnn_true_dog_35_n02105056_11269.png
dino_v8,1,606,NaN,knife,airplane,false,0606_fc_dnn_false_airplane_35_n02690373_9659.png
dino_v8,1,607,NaN,boat,car,false,0607_fc_dnn_false_car_35_n04285008_3269.png
dino_v8,1,608,NaN,bicycle,bottle,true,0608_fc_dnn_true_bottle_35_n02823428_3178.png
dino_v8,1,609,NaN,bicycle,elephant,false,0609_fc_dnn_false_elephant_35_n02504458_4849.png
dino_v8,1,610,NaN,car,bear,true,0610_fc_dnn_true_bear_35_n02134418_643.png
dino_v8,1,611,NaN,bicycle,boat,true,0611_fc_dnn_true_boat_35_n03344393_7773.png
dino_v8,1,612,NaN,airplane,car,true,0612_fc_dnn_true_car_35_n02814533_26516.png
dino_v8,1,613,NaN,car,cat,false,0613_fc_dnn_false_cat_35_n02123597_3314.png
dino_v8,1,614,NaN,boat,bicycle,true,0614_fc_dnn_true_bicycle_35_n02835271_6539.png
dino_v8,1,615,NaN,airplane,bear,true,0615_fc_dnn_true_bear_35_n02132136_3090.png
dino_v8,1,616,NaN,airplane,car,true,0616_fc_dnn_true_car_35_n03100240_9171.png
dino_v8,1,617,NaN,airplane,cat,false,0617_fc_dnn_false_cat_35_n02123045_12060.png
dino_v8,1,618,NaN,keyboard,truck,false,0618_fc_dnn_false_truck_35_n03796401_26801.png
dino_v8,1,619,NaN,airplane,cat,false,0619_fc_dnn_false_cat_35_n02123045_15010.png
dino_v8,1,620,NaN,chair,knife,true,0620_fc_dnn_true_knife_35_n03041632_24883.png
dino_v8,1,621,NaN,airplane,cat,true,0621_fc_dnn_true_cat_35_n02123597_4040.png
dino_v8,1,622,NaN,clock,bird,true,0622_fc_dnn_true_bird_35_n01843383_3019.png
dino_v8,1,623,NaN,airplane,bear,true,0623_fc_dnn_true_bear_35_n02132136_8619.png
dino_v8,1,624,NaN,bottle,airplane,false,0624_fc_dnn_false_airplane_35_n02690373_1912.png
dino_v8,1,625,NaN,car,truck,true,0625_fc_dnn_true_truck_35_n03417042_22828.png
dino_v8,1,626,NaN,clock,car,true,0626_fc_dnn_true_car_35_n03100240_2909.png
dino_v8,1,627,NaN,cat,oven,true,0627_fc_dnn_true_oven_35_n04111531_22563.png
dino_v8,1,628,NaN,airplane,truck,false,0628_fc_dnn_false_truck_35_n03796401_18074.png
dino_v8,1,629,NaN,car,cat,true,0629_fc_dnn_true_cat_35_n02123159_3092.png
dino_v8,1,630,NaN,boat,bird,false,0630_fc_dnn_false_bird_35_n02009912_5983.png
dino_v8,1,631,NaN,cat,keyboard,true,0631_fc_dnn_true_keyboard_35_n03085013_19916.png
dino_v8,1,632,NaN,bicycle,bottle,false,0632_fc_dnn_false_bottle_35_n04591713_4035.png
dino_v8,1,633,NaN,bicycle,chair,false,0633_fc_dnn_false_chair_35_n04099969_6189.png
dino_v8,1,634,NaN,oven,oven,true,0634_fc_dnn_true_oven_35_n04111531_7064.png
dino_v8,1,635,NaN,knife,boat,false,0635_fc_dnn_false_boat_35_n03344393_595.png
dino_v8,1,636,NaN,knife,elephant,true,0636_fc_dnn_true_elephant_35_n02504458_3099.png
dino_v8,1,637,NaN,bicycle,chair,false,0637_fc_dnn_false_chair_35_n04429376_19617.png
dino_v8,1,638,NaN,clock,knife,false,0638_fc_dnn_false_knife_35_n03041632_51766.png
dino_v8,1,639,NaN,clock,bear,true,0639_fc_dnn_true_bear_35_n02133161_1571.png
dino_v8,1,640,NaN,bicycle,bear,false,0640_fc_dnn_false_bear_35_n02132136_8525.png
dino_v8,1,641,NaN,keyboard,bird,true,0641_fc_dnn_true_bird_35_n01560419_9124.png
dino_v8,1,642,NaN,airplane,car,false,0642_fc_dnn_false_car_35_n02814533_2555.png
dino_v8,1,643,NaN,airplane,cat,false,0643_fc_dnn_false_cat_35_n02125311_31100.png
dino_v8,1,644,NaN,airplane,car,true,0644_fc_dnn_true_car_35_n02814533_46508.png
dino_v8,1,645,NaN,cat,bicycle,true,0645_fc_dnn_true_bicycle_35_n03792782_51156.png
dino_v8,1,646,NaN,airplane,elephant,false,0646_fc_dnn_false_elephant_35_n02504013_637.png
dino_v8,1,647,NaN,oven,clock,false,0647_fc_dnn_false_clock_35_n04548280_7321.png
dino_v8,1,648,NaN,boat,airplane,true,0648_fc_dnn_true_airplane_35_n02690373_2447.png
dino_v8,1,649,NaN,airplane,elephant,false,0649_fc_dnn_false_elephant_35_n02504458_477.png
dino_v8,1,650,NaN,airplane,bottle,false,0650_fc_dnn_false_bottle_35_n04557648_2063.png
dino_v8,1,651,NaN,bicycle,chair,true,0651_fc_dnn_true_chair_35_n04099969_14155.png
dino_v8,1,652,NaN,airplane,bear,false,0652_fc_dnn_false_bear_35_n02134084_21407.png
dino_v8,1,653,NaN,airplane,boat,false,0653_fc_dnn_false_boat_35_n03662601_4418.png
dino_v8,1,654,NaN,clock,car,true,0654_fc_dnn_true_car_35_n03100240_9497.png
dino_v8,1,655,NaN,knife,airplane,false,0655_fc_dnn_false_airplane_35_n02690373_4199.png
dino_v8,1,656,NaN,boat,boat,false,0656_fc_dnn_false_boat_35_n03662601_4612.png
dino_v8,1,657,NaN,oven,bicycle,true,0657_fc_dnn_true_bicycle_35_n02835271_9531.png
dino_v8,1,658,NaN,knife,bird,false,0658_fc_dnn_false_bird_35_n02037110_21381.png
dino_v8,1,659,NaN,airplane,bottle,false,0659_fc_dnn_false_bottle_35_n04560804_6576.png
dino_v8,1,660,NaN,elephant,bottle,false,0660_fc_dnn_false_bottle_35_n02823428_4358.png
dino_v8,1,661,NaN,airplane,bottle,false,0661_fc_dnn_false_bottle_35_n04579145_961.png
dino_v8,1,662,NaN,airplane,car,true,0662_fc_dnn_true_car_35_n02814533_58462.png
dino_v8,1,663,NaN,cat,bird,false,0663_fc_dnn_false_bird_35_n01796340_4643.png
dino_v8,1,664,NaN,knife,dog,false,0664_fc_dnn_false_dog_35_n02091134_7695.png
dino_v8,1,665,NaN,bicycle,dog,false,0665_fc_dnn_false_dog_35_n02097209_1133.png
dino_v8,1,666,NaN,clock,elephant,true,0666_fc_dnn_true_elephant_35_n02504458_4861.png
dino_v8,1,667,NaN,clock,dog,false,0667_fc_dnn_false_dog_35_n02110806_3673.png
dino_v8,1,668,NaN,airplane,car,false,0668_fc_dnn_false_car_35_n04285008_863.png
dino_v8,1,669,NaN,bicycle,bicycle,false,0669_fc_dnn_false_bicycle_35_n03792782_52427.png
dino_v8,1,670,NaN,clock,keyboard,true,0670_fc_dnn_true_keyboard_35_n03085013_22796.png
dino_v8,1,671,NaN,cat,bottle,false,0671_fc_dnn_false_bottle_35_n03983396_22979.png
dino_v8,1,672,NaN,boat,dog,true,0672_fc_dnn_true_dog_35_n02109047_4167.png
dino_v8,1,673,NaN,cat,bottle,true,0673_fc_dnn_true_bottle_35_n04560804_15843.png
dino_v8,1,674,NaN,oven,airplane,true,0674_fc_dnn_true_airplane_35_n02690373_3383.png
dino_v8,1,675,NaN,clock,truck,true,0675_fc_dnn_true_truck_35_n03796401_7380.png
dino_v8,1,676,NaN,knife,clock,true,0676_fc_dnn_true_clock_35_n03196217_11054.png
dino_v8,1,677,NaN,cat,airplane,true,0677_fc_dnn_true_airplane_35_n02690373_599.png
dino_v8,1,678,NaN,bear,chair,true,0678_fc_dnn_true_chair_35_n04429376_2693.png
dino_v8,1,679,NaN,knife,clock,false,0679_fc_dnn_false_clock_35_n02708093_5265.png
dino_v8,1,680,NaN,bicycle,knife,true,0680_fc_dnn_true_knife_35_n03041632_48149.png
dino_v8,1,681,NaN,oven,dog,true,0681_fc_dnn_true_dog_35_n02096585_9543.png
dino_v8,1,682,NaN,knife,boat,false,0682_fc_dnn_false_boat_35_n04612504_20927.png
dino_v8,1,683,NaN,airplane,oven,false,0683_fc_dnn_false_oven_35_n04111531_2150.png
dino_v8,1,684,NaN,bear,bird,false,0684_fc_dnn_false_bird_35_n01797886_12436.png
dino_v8,1,685,NaN,car,truck,false,0685_fc_dnn_false_truck_35_n04467665_197.png
dino_v8,1,686,NaN,bicycle,chair,false,0686_fc_dnn_false_chair_35_n02791124_2091.png
dino_v8,1,687,NaN,bicycle,chair,false,0687_fc_dnn_false_chair_35_n03376595_1810.png
dino_v8,1,688,NaN,elephant,keyboard,false,0688_fc_dnn_false_keyboard_35_n03085013_24439.png
dino_v8,1,689,NaN,bottle,bottle,false,0689_fc_dnn_false_bottle_35_n03983396_18753.png
dino_v8,1,690,NaN,bottle,clock,false,0690_fc_dnn_false_clock_35_n02708093_2054.png
dino_v8,1,691,NaN,airplane,bear,true,0691_fc_dnn_true_bear_35_n02132136_7872.png
dino_v8,1,692,NaN,boat,elephant,true,0692_fc_dnn_true_elephant_35_n02504458_5144.png
dino_v8,1,693,NaN,bicycle,oven,false,0693_fc_dnn_false_oven_35_n04111531_6500.png
dino_v8,1,694,NaN,airplane,elephant,false,0694_fc_dnn_false_elephant_35_n02504458_209.png
dino_v8,1,695,NaN,car,oven,true,0695_fc_dnn_true_oven_35_n04111531_12769.png
dino_v8,1,696,NaN,truck,dog,false,0696_fc_dnn_false_dog_35_n02107574_3387.png
dino_v8,1,697,NaN,cat,airplane,true,0697_fc_dnn_true_airplane_35_n02690373_4706.png
dino_v8,1,698,NaN,keyboard,dog,false,0698_fc_dnn_false_dog_35_n02096585_9834.png
dino_v8,1,699,NaN,bicycle,chair,true,0699_fc_dnn_true_chair_35_n04429376_29312.png
dino_v8,1,700,NaN,car,elephant,false,0700_fc_dnn_false_elephant_35_n02504013_5774.png
dino_v8,1,701,NaN,boat,elephant,true,0701_fc_dnn_true_elephant_35_n02504458_5187.png
dino_v8,1,702,NaN,oven,oven,true,0702_fc_dnn_true_oven_35_n04111531_12820.png
dino_v8,1,703,NaN,boat,truck,false,0703_fc_dnn_false_truck_35_n04467665_11888.png
dino_v8,1,704,NaN,elephant,truck,true,0704_fc_dnn_true_truck_35_n03796401_3434.png
dino_v8,1,705,NaN,knife,elephant,false,0705_fc_dnn_false_elephant_35_n02504458_3491.png
dino_v8,1,706,NaN,airplane,bear,false,0706_fc_dnn_false_bear_35_n02134084_4677.png
dino_v8,1,707,NaN,airplane,cat,false,0707_fc_dnn_false_cat_35_n02125311_2401.png
dino_v8,1,708,NaN,airplane,car,true,0708_fc_dnn_true_car_35_n04285008_16701.png
dino_v8,1,709,NaN,airplane,bear,true,0709_fc_dnn_true_bear_35_n02133161_10632.png
dino_v8,1,710,NaN,keyboard,bird,true,0710_fc_dnn_true_bird_35_n01592084_6081.png
dino_v8,1,711,NaN,knife,bottle,false,0711_fc_dnn_false_bottle_35_n04560804_15832.png
dino_v8,1,712,NaN,truck,oven,true,0712_fc_dnn_true_oven_35_n04111531_11116.png
dino_v8,1,713,NaN,knife,boat,false,0713_fc_dnn_false_boat_35_n03662601_10811.png
dino_v8,1,714,NaN,bear,bottle,false,0714_fc_dnn_false_bottle_35_n03937543_211.png
dino_v8,1,715,NaN,bicycle,boat,false,0715_fc_dnn_false_boat_35_n03344393_1595.png
dino_v8,1,716,NaN,cat,bicycle,true,0716_fc_dnn_true_bicycle_35_n02835271_10293.png
dino_v8,1,717,NaN,airplane,cat,false,0717_fc_dnn_false_cat_35_n02123159_6170.png
dino_v8,1,718,NaN,chair,boat,false,0718_fc_dnn_false_boat_35_n03662601_12323.png
dino_v8,1,719,NaN,airplane,oven,true,0719_fc_dnn_true_oven_35_n04111531_17809.png
dino_v8,1,720,NaN,airplane,bear,false,0720_fc_dnn_false_bear_35_n02134084_6783.png
dino_v8,1,721,NaN,keyboard,airplane,false,0721_fc_dnn_false_airplane_35_n02690373_2203.png
dino_v8,1,722,NaN,bicycle,knife,false,0722_fc_dnn_false_knife_35_n03041632_38610.png
dino_v8,1,723,NaN,car,bicycle,true,0723_fc_dnn_true_bicycle_35_n03792782_634.png
dino_v8,1,724,NaN,cat,bicycle,true,0724_fc_dnn_true_bicycle_35_n03792782_47426.png
dino_v8,1,725,NaN,cat,bird,false,0725_fc_dnn_false_bird_35_n02013706_16546.png
dino_v8,1,726,NaN,oven,clock,false,0726_fc_dnn_false_clock_35_n02708093_616.png
dino_v8,1,727,NaN,car,bear,true,0727_fc_dnn_true_bear_35_n02134418_9289.png
dino_v8,1,728,NaN,knife,boat,false,0728_fc_dnn_false_boat_35_n02951358_5118.png
dino_v8,1,729,NaN,bicycle,clock,false,0729_fc_dnn_false_clock_35_n04548280_2291.png
dino_v8,1,730,NaN,keyboard,bird,true,0730_fc_dnn_true_bird_35_n01833805_1104.png
dino_v8,1,731,NaN,keyboard,bird,false,0731_fc_dnn_false_bird_35_n01843383_12917.png
dino_v8,1,732,NaN,airplane,knife,true,0732_fc_dnn_true_knife_35_n03041632_30286.png
dino_v8,1,733,NaN,keyboard,clock,true,0733_fc_dnn_true_clock_35_n04548280_12615.png
dino_v8,1,734,NaN,airplane,knife,true,0734_fc_dnn_true_knife_35_n03041632_22190.png
dino_v8,1,735,NaN,elephant,boat,true,0735_fc_dnn_true_boat_35_n04273569_11645.png
dino_v8,1,736,NaN,boat,keyboard,false,0736_fc_dnn_false_keyboard_35_n04505470_8148.png
dino_v8,1,737,NaN,car,bird,true,0737_fc_dnn_true_bird_35_n02027492_4976.png
dino_v8,1,738,NaN,bicycle,chair,true,0738_fc_dnn_true_chair_35_n04429376_7181.png
dino_v8,1,739,NaN,oven,car,false,0739_fc_dnn_false_car_35_n03100240_13908.png
dino_v8,1,740,NaN,bicycle,elephant,true,0740_fc_dnn_true_elephant_35_n02504013_3384.png
dino_v8,1,741,NaN,chair,knife,false,0741_fc_dnn_false_knife_35_n03041632_38535.png
dino_v8,1,742,NaN,keyboard,airplane,false,0742_fc_dnn_false_airplane_35_n02690373_7375.png
dino_v8,1,743,NaN,airplane,cat,false,0743_fc_dnn_false_cat_35_n02123394_8507.png
dino_v8,1,744,NaN,oven,knife,true,0744_fc_dnn_true_knife_35_n03041632_36390.png
dino_v8,1,745,NaN,knife,oven,false,0745_fc_dnn_false_oven_35_n04111531_11794.png
dino_v8,1,746,NaN,boat,cat,true,0746_fc_dnn_true_cat_35_n02123159_8144.png
dino_v8,1,747,NaN,airplane,bird,false,0747_fc_dnn_false_bird_35_n01558993_11093.png
dino_v8,1,748,NaN,bottle,bicycle,false,0748_fc_dnn_false_bicycle_35_n03792782_14966.png
dino_v8,1,749,NaN,clock,bear,false,0749_fc_dnn_false_bear_35_n02133161_3191.png
dino_v8,1,750,NaN,airplane,car,true,0750_fc_dnn_true_car_35_n02814533_56999.png
dino_v8,1,751,NaN,cat,bicycle,false,0751_fc_dnn_false_bicycle_35_n03792782_70169.png
dino_v8,1,752,NaN,airplane,bottle,true,0752_fc_dnn_true_bottle_35_n04557648_5458.png
dino_v8,1,753,NaN,boat,dog,true,0753_fc_dnn_true_dog_35_n02090379_4918.png
dino_v8,1,754,NaN,cat,bicycle,false,0754_fc_dnn_false_bicycle_35_n03792782_23334.png
dino_v8,1,755,NaN,knife,clock,false,0755_fc_dnn_false_clock_35_n02708093_56.png
dino_v8,1,756,NaN,knife,knife,false,0756_fc_dnn_false_knife_35_n03041632_54627.png
dino_v8,1,757,NaN,elephant,keyboard,true,0757_fc_dnn_true_keyboard_35_n03085013_24154.png
dino_v8,1,758,NaN,cat,clock,true,0758_fc_dnn_true_clock_35_n03196217_5972.png
dino_v8,1,759,NaN,knife,cat,false,0759_fc_dnn_false_cat_35_n02124075_6210.png
dino_v8,1,760,NaN,cat,airplane,false,0760_fc_dnn_false_airplane_35_n02690373_8770.png
dino_v8,1,761,NaN,clock,boat,true,0761_fc_dnn_true_boat_35_n04612504_5093.png
dino_v8,1,762,NaN,cat,bicycle,false,0762_fc_dnn_false_bicycle_35_n02835271_13404.png
dino_v8,1,763,NaN,keyboard,bottle,false,0763_fc_dnn_false_bottle_35_n04560804_915.png
dino_v8,1,764,NaN,cat,clock,true,0764_fc_dnn_true_clock_35_n04548280_8942.png
dino_v8,1,765,NaN,knife,airplane,false,0765_fc_dnn_false_airplane_35_n02690373_5029.png
dino_v8,1,766,NaN,airplane,bear,true,0766_fc_dnn_true_bear_35_n02132136_8059.png
dino_v8,1,767,NaN,airplane,oven,false,0767_fc_dnn_false_oven_35_n04111531_4574.png
dino_v8,1,768,NaN,airplane,car,true,0768_fc_dnn_true_car_35_n03100240_20935.png
dino_v8,1,769,NaN,bicycle,bottle,false,0769_fc_dnn_false_bottle_35_n03937543_2344.png
dino_v8,1,770,NaN,keyboard,bird,true,0770_fc_dnn_true_bird_35_n01560419_2726.png
dino_v8,1,771,NaN,airplane,cat,true,0771_fc_dnn_true_cat_35_n02123159_1233.png
dino_v8,1,772,NaN,bear,chair,true,0772_fc_dnn_true_chair_35_n04099969_38402.png
dino_v8,1,773,NaN,elephant,boat,true,0773_fc_dnn_true_boat_35_n04273569_4324.png
dino_v8,1,774,NaN,cat,keyboard,false,0774_fc_dnn_false_keyboard_35_n03085013_16724.png
dino_v8,1,775,NaN,car,oven,true,0775_fc_dnn_true_oven_35_n04111531_7449.png
dino_v8,1,776,NaN,elephant,clock,true,0776_fc_dnn_true_clock_35_n02708093_3360.png
dino_v8,1,777,NaN,airplane,cat,false,0777_fc_dnn_false_cat_35_n02123597_13994.png
dino_v8,1,778,NaN,bicycle,bottle,true,0778_fc_dnn_true_bottle_35_n04591713_4291.png
dino_v8,1,779,NaN,chair,knife,true,0779_fc_dnn_true_knife_35_n03041632_18748.png
dino_v8,1,780,NaN,airplane,elephant,false,0780_fc_dnn_false_elephant_35_n02504458_9049.png
dino_v8,1,781,NaN,elephant,bottle,true,0781_fc_dnn_true_bottle_35_n04579145_1705.png
dino_v8,1,782,NaN,boat,cat,true,0782_fc_dnn_true_cat_35_n02123159_6087.png
dino_v8,1,783,NaN,bicycle,bear,true,0783_fc_dnn_true_bear_35_n02134418_2435.png
dino_v8,1,784,NaN,cat,bird,false,0784_fc_dnn_false_bird_35_n01592084_5925.png
dino_v8,1,785,NaN,keyboard,bird,false,0785_fc_dnn_false_bird_35_n01560419_14207.png
dino_v8,1,786,NaN,boat,airplane,true,0786_fc_dnn_true_airplane_35_n02690373_10176.png
dino_v8,1,787,NaN,airplane,cat,false,0787_fc_dnn_false_cat_35_n02123159_6089.png
dino_v8,1,788,NaN,airplane,bear,false,0788_fc_dnn_false_bear_35_n02132136_451.png
dino_v8,1,789,NaN,airplane,clock,false,0789_fc_dnn_false_clock_35_n03196217_6999.png
dino_v8,1,790,NaN,chair,bottle,true,0790_fc_dnn_true_bottle_35_n04560804_5636.png
dino_v8,1,791,NaN,bicycle,bottle,true,0791_fc_dnn_true_bottle_35_n04591713_5702.png
dino_v8,1,792,NaN,clock,bear,false,0792_fc_dnn_false_bear_35_n02133161_693.png
dino_v8,1,793,NaN,car,truck,false,0793_fc_dnn_false_truck_35_n03796401_19487.png
dino_v8,1,794,NaN,chair,knife,true,0794_fc_dnn_true_knife_35_n03041632_17067.png
dino_v8,1,795,NaN,clock,keyboard,true,0795_fc_dnn_true_keyboard_35_n03085013_26449.png
dino_v8,1,796,NaN,boat,elephant,true,0796_fc_dnn_true_elephant_35_n02504458_6435.png
dino_v8,1,797,NaN,car,truck,true,0797_fc_dnn_true_truck_35_n04467665_43410.png
dino_v8,1,798,NaN,boat,keyboard,true,0798_fc_dnn_true_keyboard_35_n03085013_30335.png
dino_v8,1,799,NaN,airplane,oven,true,0799_fc_dnn_true_oven_35_n04111531_8553.png
dino_v8,1,800,NaN,car,bicycle,false,0800_fc_dnn_false_bicycle_35_n03792782_3069.png
dino_v8,1,801,NaN,bicycle,knife,false,0801_fc_dnn_false_knife_35_n03041632_45636.png
dino_v8,1,802,NaN,keyboard,chair,false,0802_fc_dnn_false_chair_35_n04099969_8961.png
dino_v8,1,803,NaN,clock,bird,true,0803_fc_dnn_true_bird_35_n01582220_4924.png
dino_v8,1,804,NaN,airplane,bear,false,0804_fc_dnn_false_bear_35_n02134418_2438.png
dino_v8,1,805,NaN,clock,dog,false,0805_fc_dnn_false_dog_35_n02105056_2046.png
dino_v8,1,806,NaN,boat,keyboard,true,0806_fc_dnn_true_keyboard_35_n04505470_3234.png
dino_v8,1,807,NaN,clock,truck,true,0807_fc_dnn_true_truck_35_n04467665_2246.png
dino_v8,1,808,NaN,cat,elephant,true,0808_fc_dnn_true_elephant_35_n02504458_12165.png
dino_v8,1,809,NaN,cat,bicycle,false,0809_fc_dnn_false_bicycle_35_n02835271_18173.png
dino_v8,1,810,NaN,bottle,dog,true,0810_fc_dnn_true_dog_35_n02108551_262.png
dino_v8,1,811,NaN,bicycle,dog,true,0811_fc_dnn_true_dog_35_n02096437_1018.png
dino_v8,1,812,NaN,cat,bird,true,0812_fc_dnn_true_bird_35_n01530575_2039.png
dino_v8,1,813,NaN,bicycle,bottle,true,0813_fc_dnn_true_bottle_35_n02823428_5807.png
dino_v8,1,814,NaN,boat,truck,false,0814_fc_dnn_false_truck_35_n03417042_8690.png
dino_v8,1,815,NaN,cat,elephant,false,0815_fc_dnn_false_elephant_35_n02504458_3881.png
dino_v8,1,816,NaN,airplane,cat,true,0816_fc_dnn_true_cat_35_n02123159_5467.png
dino_v8,1,817,NaN,bicycle,boat,false,0817_fc_dnn_false_boat_35_n02951358_16040.png
dino_v8,1,818,NaN,clock,chair,true,0818_fc_dnn_true_chair_35_n04429376_20873.png
dino_v8,1,819,NaN,airplane,dog,false,0819_fc_dnn_false_dog_35_n02092339_160.png
dino_v8,1,820,NaN,cat,keyboard,false,0820_fc_dnn_false_keyboard_35_n03085013_24001.png
dino_v8,1,821,NaN,bicycle,chair,false,0821_fc_dnn_false_chair_35_n04099969_20390.png
dino_v8,1,822,NaN,elephant,clock,false,0822_fc_dnn_false_clock_35_n02708093_1684.png
dino_v8,1,823,NaN,keyboard,elephant,false,0823_fc_dnn_false_elephant_35_n02504013_4023.png
dino_v8,1,824,NaN,bear,bottle,false,0824_fc_dnn_false_bottle_35_n02823428_14149.png
dino_v8,1,825,NaN,oven,clock,true,0825_fc_dnn_true_clock_35_n03196217_3669.png
dino_v8,1,826,NaN,elephant,keyboard,false,0826_fc_dnn_false_keyboard_35_n03085013_20957.png
dino_v8,1,827,NaN,elephant,airplane,false,0827_fc_dnn_false_airplane_35_n02690373_6524.png
dino_v8,1,828,NaN,clock,boat,false,0828_fc_dnn_false_boat_35_n02951358_26227.png
dino_v8,1,829,NaN,cat,elephant,true,0829_fc_dnn_true_elephant_35_n02504458_3599.png
dino_v8,1,830,NaN,bear,knife,false,0830_fc_dnn_false_knife_35_n03041632_36235.png
dino_v8,1,831,NaN,boat,clock,true,0831_fc_dnn_true_clock_35_n04548280_5428.png
dino_v8,1,832,NaN,bicycle,knife,false,0832_fc_dnn_false_knife_35_n03041632_92063.png
dino_v8,1,833,NaN,airplane,elephant,true,0833_fc_dnn_true_elephant_35_n02504013_11033.png
dino_v8,1,834,NaN,bicycle,chair,false,0834_fc_dnn_false_chair_35_n02791124_4547.png
dino_v8,1,835,NaN,airplane,car,true,0835_fc_dnn_true_car_35_n04285008_9456.png
dino_v8,1,836,NaN,elephant,boat,false,0836_fc_dnn_false_boat_35_n02951358_461.png
dino_v8,1,837,NaN,clock,oven,true,0837_fc_dnn_true_oven_35_n04111531_4116.png
dino_v8,1,838,NaN,clock,car,false,0838_fc_dnn_false_car_35_n03100240_6248.png
dino_v8,1,839,NaN,clock,dog,true,0839_fc_dnn_true_dog_35_n02086646_6849.png
dino_v8,1,840,NaN,oven,dog,true,0840_fc_dnn_true_dog_35_n02102040_1187.png
dino_v8,1,841,NaN,bear,bottle,false,0841_fc_dnn_false_bottle_35_n03983396_8041.png
dino_v8,1,842,NaN,airplane,bear,true,0842_fc_dnn_true_bear_35_n02132136_8516.png
dino_v8,1,843,NaN,bicycle,chair,false,0843_fc_dnn_false_chair_35_n02791124_177.png
dino_v8,1,844,NaN,chair,boat,false,0844_fc_dnn_false_boat_35_n03662601_10330.png
dino_v8,1,845,NaN,airplane,car,false,0845_fc_dnn_false_car_35_n03100240_6311.png
dino_v8,1,846,NaN,bicycle,chair,false,0846_fc_dnn_false_chair_35_n03376595_1943.png
dino_v8,1,847,NaN,airplane,bottle,false,0847_fc_dnn_false_bottle_35_n04557648_4356.png
dino_v8,1,848,NaN,airplane,bear,true,0848_fc_dnn_true_bear_35_n02134084_14754.png
dino_v8,1,849,NaN,clock,truck,false,0849_fc_dnn_false_truck_35_n03417042_25493.png
dino_v8,1,850,NaN,elephant,knife,true,0850_fc_dnn_true_knife_35_n03041632_30565.png
dino_v8,1,851,NaN,keyboard,boat,false,0851_fc_dnn_false_boat_35_n03344393_5501.png
dino_v8,1,852,NaN,bicycle,bicycle,true,0852_fc_dnn_true_bicycle_35_n02835271_4446.png
dino_v8,1,853,NaN,bird,knife,true,0853_fc_dnn_true_knife_35_n03041632_3926.png
dino_v8,1,854,NaN,car,cat,false,0854_fc_dnn_false_cat_35_n02123159_7580.png
dino_v8,1,855,NaN,clock,dog,true,0855_fc_dnn_true_dog_35_n02112018_9196.png
dino_v8,1,856,NaN,bottle,car,false,0856_fc_dnn_false_car_35_n03100240_20185.png
dino_v8,1,857,NaN,airplane,elephant,false,0857_fc_dnn_false_elephant_35_n02504458_11693.png
dino_v8,1,858,NaN,elephant,clock,true,0858_fc_dnn_true_clock_35_n04548280_3303.png
dino_v8,1,859,NaN,airplane,bottle,false,0859_fc_dnn_false_bottle_35_n04560804_10411.png
dino_v8,1,860,NaN,clock,car,false,0860_fc_dnn_false_car_35_n03100240_16803.png
dino_v8,1,861,NaN,airplane,cat,true,0861_fc_dnn_true_cat_35_n02123597_2099.png
dino_v8,1,862,NaN,clock,truck,true,0862_fc_dnn_true_truck_35_n03796401_27288.png
dino_v8,1,863,NaN,truck,dog,false,0863_fc_dnn_false_dog_35_n02097130_2470.png
dino_v8,1,864,NaN,oven,dog,false,0864_fc_dnn_false_dog_35_n02111277_25819.png
dino_v8,1,865,NaN,airplane,bear,false,0865_fc_dnn_false_bear_35_n02134084_12070.png
dino_v8,1,866,NaN,cat,clock,false,0866_fc_dnn_false_clock_35_n02708093_3525.png
dino_v8,1,867,NaN,bicycle,chair,false,0867_fc_dnn_false_chair_35_n03376595_4912.png
dino_v8,1,868,NaN,knife,airplane,false,0868_fc_dnn_false_airplane_35_n02690373_6856.png
dino_v8,1,869,NaN,boat,truck,true,0869_fc_dnn_true_truck_35_n04467665_25130.png
dino_v8,1,870,NaN,cat,dog,true,0870_fc_dnn_true_dog_35_n02107908_8344.png
dino_v8,1,871,NaN,airplane,car,true,0871_fc_dnn_true_car_35_n03100240_14045.png
dino_v8,1,872,NaN,boat,airplane,false,0872_fc_dnn_false_airplane_35_n02690373_7735.png
dino_v8,1,873,NaN,cat,dog,false,0873_fc_dnn_false_dog_35_n02094258_5084.png
dino_v8,1,874,NaN,bottle,knife,false,0874_fc_dnn_false_knife_35_n03041632_13742.png
dino_v8,1,875,NaN,oven,bottle,false,0875_fc_dnn_false_bottle_35_n03937543_5062.png
dino_v8,1,876,NaN,airplane,truck,false,0876_fc_dnn_false_truck_35_n03417042_768.png
dino_v8,1,877,NaN,airplane,dog,false,0877_fc_dnn_false_dog_35_n02097209_3172.png
dino_v8,1,878,NaN,oven,knife,true,0878_fc_dnn_true_knife_35_n03041632_4057.png
dino_v8,1,879,NaN,elephant,clock,true,0879_fc_dnn_true_clock_35_n02708093_7060.png
dino_v8,1,880,NaN,car,truck,true,0880_fc_dnn_true_truck_35_n03417042_29353.png
dino_v8,1,881,NaN,bicycle,dog,true,0881_fc_dnn_true_dog_35_n02091831_7969.png
dino_v8,1,882,NaN,knife,bottle,false,0882_fc_dnn_false_bottle_35_n04591713_5599.png
dino_v8,1,883,NaN,airplane,dog,true,0883_fc_dnn_true_dog_35_n02092339_7915.png
dino_v8,1,884,NaN,keyboard,keyboard,true,0884_fc_dnn_true_keyboard_35_n03085013_743.png
dino_v8,1,885,NaN,bicycle,chair,true,0885_fc_dnn_true_chair_35_n02791124_1135.png
dino_v8,1,886,NaN,airplane,cat,false,0886_fc_dnn_false_cat_35_n02125311_41249.png
dino_v8,1,887,NaN,airplane,car,false,0887_fc_dnn_false_car_35_n02814533_4885.png
dino_v8,1,888,NaN,airplane,bear,false,0888_fc_dnn_false_bear_35_n02132136_11149.png
dino_v8,1,889,NaN,keyboard,car,true,0889_fc_dnn_true_car_35_n03100240_7064.png
dino_v8,1,890,NaN,clock,bear,true,0890_fc_dnn_true_bear_35_n02132136_10301.png
dino_v8,1,891,NaN,cat,keyboard,false,0891_fc_dnn_false_keyboard_35_n04505470_3937.png
dino_v8,1,892,NaN,clock,boat,false,0892_fc_dnn_false_boat_35_n03344393_4143.png
dino_v8,1,893,NaN,airplane,dog,false,0893_fc_dnn_false_dog_35_n02086240_5271.png
dino_v8,1,894,NaN,car,cat,true,0894_fc_dnn_true_cat_35_n02124075_2806.png
dino_v8,1,895,NaN,elephant,cat,true,0895_fc_dnn_true_cat_35_n02125311_23425.png
dino_v8,1,896,NaN,airplane,boat,true,0896_fc_dnn_true_boat_35_n04273569_928.png
dino_v8,1,897,NaN,car,truck,true,0897_fc_dnn_true_truck_35_n03417042_6691.png
dino_v8,1,898,NaN,bottle,boat,false,0898_fc_dnn_false_boat_35_n04612504_20125.png
dino_v8,1,899,NaN,chair,knife,true,0899_fc_dnn_true_knife_35_n03041632_1143.png
dino_v8,1,900,NaN,chair,bird,false,0900_fc_dnn_false_bird_35_n01796340_20055.png
dino_v8,1,901,NaN,keyboard,car,false,0901_fc_dnn_false_car_35_n03100240_10706.png
dino_v8,1,902,NaN,bicycle,boat,true,0902_fc_dnn_true_boat_35_n03344393_6324.png
dino_v8,1,903,NaN,bicycle,knife,false,0903_fc_dnn_false_knife_35_n03041632_29038.png
dino_v8,1,904,NaN,boat,keyboard,false,0904_fc_dnn_false_keyboard_35_n04505470_5354.png
dino_v8,1,905,NaN,airplane,elephant,true,0905_fc_dnn_true_elephant_35_n02504013_2033.png
dino_v8,1,906,NaN,boat,boat,true,0906_fc_dnn_true_boat_35_n03662601_17571.png
dino_v8,1,907,NaN,bicycle,oven,true,0907_fc_dnn_true_oven_35_n04111531_21911.png
dino_v8,1,908,NaN,elephant,elephant,false,0908_fc_dnn_false_elephant_35_n02504013_237.png
dino_v8,1,909,NaN,clock,truck,true,0909_fc_dnn_true_truck_35_n03417042_12232.png
dino_v8,1,910,NaN,knife,clock,true,0910_fc_dnn_true_clock_35_n03196217_845.png
dino_v8,1,911,NaN,airplane,oven,false,0911_fc_dnn_false_oven_35_n04111531_4918.png
dino_v8,1,912,NaN,boat,bottle,false,0912_fc_dnn_false_bottle_35_n04560804_10.png
dino_v8,1,913,NaN,clock,bear,true,0913_fc_dnn_true_bear_35_n02133161_2597.png
dino_v8,1,914,NaN,cat,oven,true,0914_fc_dnn_true_oven_35_n04111531_6485.png
dino_v8,1,915,NaN,bicycle,bottle,true,0915_fc_dnn_true_bottle_35_n02823428_10612.png
dino_v8,1,916,NaN,airplane,car,true,0916_fc_dnn_true_car_35_n04285008_11323.png
dino_v8,1,917,NaN,boat,truck,false,0917_fc_dnn_false_truck_35_n03417042_7313.png
dino_v8,1,918,NaN,knife,bird,true,0918_fc_dnn_true_bird_35_n02025239_4966.png
dino_v8,1,919,NaN,bicycle,boat,true,0919_fc_dnn_true_boat_35_n03344393_4496.png
dino_v8,1,920,NaN,clock,truck,true,0920_fc_dnn_true_truck_35_n04467665_23055.png
dino_v8,1,921,NaN,airplane,cat,false,0921_fc_dnn_false_cat_35_n02123159_2757.png
dino_v8,1,922,NaN,airplane,elephant,false,0922_fc_dnn_false_elephant_35_n02504458_7258.png
dino_v8,1,923,NaN,elephant,keyboard,false,0923_fc_dnn_false_keyboard_35_n04505470_2921.png
dino_v8,1,924,NaN,cat,knife,true,0924_fc_dnn_true_knife_35_n03041632_9671.png
dino_v8,1,925,NaN,airplane,oven,true,0925_fc_dnn_true_oven_35_n04111531_594.png
dino_v8,1,926,NaN,airplane,cat,true,0926_fc_dnn_true_cat_35_n02124075_7059.png
dino_v8,1,927,NaN,car,truck,false,0927_fc_dnn_false_truck_35_n03417042_3952.png
dino_v8,1,928,NaN,airplane,elephant,false,0928_fc_dnn_false_elephant_35_n02504013_8007.png
dino_v8,1,929,NaN,boat,boat,false,0929_fc_dnn_false_boat_35_n03662601_24852.png
dino_v8,1,930,NaN,chair,boat,false,0930_fc_dnn_false_boat_35_n03662601_18579.png
dino_v8,1,931,NaN,airplane,clock,false,0931_fc_dnn_false_clock_35_n02708093_3745.png
dino_v8,1,932,NaN,bicycle,bottle,false,0932_fc_dnn_false_bottle_35_n02823428_4959.png
dino_v8,1,933,NaN,cat,bottle,true,0933_fc_dnn_true_bottle_35_n04579145_54.png
dino_v8,1,934,NaN,oven,bicycle,true,0934_fc_dnn_true_bicycle_35_n02835271_29653.png
dino_v8,1,935,NaN,bicycle,chair,true,0935_fc_dnn_true_chair_35_n03376595_10986.png
dino_v8,1,936,NaN,cat,chair,true,0936_fc_dnn_true_chair_35_n03376595_10153.png
dino_v8,1,937,NaN,bicycle,boat,true,0937_fc_dnn_true_boat_35_n03344393_6799.png
dino_v8,1,938,NaN,boat,oven,true,0938_fc_dnn_true_oven_35_n04111531_20099.png
dino_v8,1,939,NaN,cat,elephant,false,0939_fc_dnn_false_elephant_35_n02504013_11073.png
dino_v8,1,940,NaN,chair,dog,true,0940_fc_dnn_true_dog_35_n02095570_11142.png
dino_v8,1,941,NaN,cat,keyboard,true,0941_fc_dnn_true_keyboard_35_n04505470_489.png
dino_v8,1,942,NaN,bear,bottle,true,0942_fc_dnn_true_bottle_35_n04557648_1791.png
dino_v8,1,943,NaN,airplane,oven,false,0943_fc_dnn_false_oven_35_n04111531_18245.png
dino_v8,1,944,NaN,cat,chair,false,0944_fc_dnn_false_chair_35_n04099969_3414.png
dino_v8,1,945,NaN,elephant,keyboard,false,0945_fc_dnn_false_keyboard_35_n03085013_24206.png
dino_v8,1,946,NaN,clock,car,false,0946_fc_dnn_false_car_35_n03100240_18270.png
dino_v8,1,947,NaN,airplane,clock,true,0947_fc_dnn_true_clock_35_n03196217_3430.png
dino_v8,1,948,NaN,bird,cat,true,0948_fc_dnn_true_cat_35_n02123159_2339.png
dino_v8,1,949,NaN,car,truck,false,0949_fc_dnn_false_truck_35_n04467665_11830.png
dino_v8,1,950,NaN,keyboard,airplane,false,0950_fc_dnn_false_airplane_35_n02690373_4198.png
dino_v8,1,951,NaN,boat,chair,true,0951_fc_dnn_true_chair_35_n04429376_16619.png
dino_v8,1,952,NaN,cat,bottle,true,0952_fc_dnn_true_bottle_35_n04579145_6186.png
dino_v8,1,953,NaN,knife,knife,true,0953_fc_dnn_true_knife_35_n03041632_27929.png
dino_v8,1,954,NaN,knife,truck,false,0954_fc_dnn_false_truck_35_n04467665_3529.png
dino_v8,1,955,NaN,oven,oven,false,0955_fc_dnn_false_oven_35_n04111531_4050.png
dino_v8,1,956,NaN,airplane,car,true,0956_fc_dnn_true_car_35_n04285008_5440.png
dino_v8,1,957,NaN,knife,airplane,true,0957_fc_dnn_true_airplane_35_n02690373_8454.png
dino_v8,1,958,NaN,airplane,knife,false,0958_fc_dnn_false_knife_35_n03041632_11326.png
dino_v8,1,959,NaN,chair,bird,false,0959_fc_dnn_false_bird_35_n01796340_5485.png
dino_v8,1,960,NaN,elephant,elephant,true,0960_fc_dnn_true_elephant_35_n02504013_12615.png
dino_v8,1,961,NaN,clock,keyboard,true,0961_fc_dnn_true_keyboard_35_n03085013_3980.png
dino_v8,1,962,NaN,clock,truck,true,0962_fc_dnn_true_truck_35_n03796401_16337.png
dino_v8,1,963,NaN,knife,truck,true,0963_fc_dnn_true_truck_35_n03796401_6921.png
dino_v8,1,964,NaN,keyboard,bear,true,0964_fc_dnn_true_bear_35_n02134084_7274.png
dino_v8,1,965,NaN,oven,bird,false,0965_fc_dnn_false_bird_35_n01819313_5839.png
dino_v8,1,966,NaN,car,bicycle,true,0966_fc_dnn_true_bicycle_35_n03792782_2057.png
dino_v8,1,967,NaN,airplane,clock,false,0967_fc_dnn_false_clock_35_n03196217_3050.png
dino_v8,1,968,NaN,airplane,car,true,0968_fc_dnn_true_car_35_n04285008_12754.png
dino_v8,1,969,NaN,bottle,bear,false,0969_fc_dnn_false_bear_35_n02134418_1409.png
dino_v8,1,970,NaN,boat,chair,true,0970_fc_dnn_true_chair_35_n03376595_3654.png
dino_v8,1,971,NaN,elephant,keyboard,false,0971_fc_dnn_false_keyboard_35_n04505470_4873.png
dino_v8,1,972,NaN,keyboard,airplane,true,0972_fc_dnn_true_airplane_35_n02690373_1615.png
dino_v8,1,973,NaN,bicycle,bottle,false,0973_fc_dnn_false_bottle_35_n04591713_6851.png
dino_v8,1,974,NaN,airplane,oven,false,0974_fc_dnn_false_oven_35_n04111531_14804.png
dino_v8,1,975,NaN,airplane,knife,false,0975_fc_dnn_false_knife_35_n03041632_29680.png
dino_v8,1,976,NaN,knife,airplane,true,0976_fc_dnn_true_airplane_35_n02690373_2068.png
dino_v8,1,977,NaN,oven,oven,false,0977_fc_dnn_false_oven_35_n04111531_8309.png
dino_v8,1,978,NaN,knife,truck,true,0978_fc_dnn_true_truck_35_n04467665_3094.png
dino_v8,1,979,NaN,cat,elephant,true,0979_fc_dnn_true_elephant_35_n02504458_5788.png
dino_v8,1,980,NaN,boat,keyboard,true,0980_fc_dnn_true_keyboard_35_n04505470_4500.png
dino_v8,1,981,NaN,airplane,car,false,0981_fc_dnn_false_car_35_n04285008_7924.png
dino_v8,1,982,NaN,oven,cat,false,0982_fc_dnn_false_cat_35_n02123394_9541.png
dino_v8,1,983,NaN,oven,bear,false,0983_fc_dnn_false_bear_35_n02134418_2440.png
dino_v8,1,984,NaN,airplane,clock,false,0984_fc_dnn_false_clock_35_n03196217_8785.png
dino_v8,1,985,NaN,boat,dog,true,0985_fc_dnn_true_dog_35_n02094258_1036.png
dino_v8,1,986,NaN,truck,boat,false,0986_fc_dnn_false_boat_35_n02951358_8503.png
dino_v8,1,987,NaN,airplane,chair,true,0987_fc_dnn_true_chair_35_n02791124_1557.png
dino_v8,1,988,NaN,bicycle,keyboard,true,0988_fc_dnn_true_keyboard_35_n03085013_5440.png
dino_v8,1,989,NaN,bicycle,chair,true,0989_fc_dnn_true_chair_35_n02791124_606.png
dino_v8,1,990,NaN,bicycle,bottle,false,0990_fc_dnn_false_bottle_35_n03937543_10543.png
dino_v8,1,991,NaN,bottle,bicycle,false,0991_fc_dnn_false_bicycle_35_n03792782_18665.png
dino_v8,1,992,NaN,airplane,car,false,0992_fc_dnn_false_car_35_n02814533_90486.png
dino_v8,1,993,NaN,keyboard,bear,false,0993_fc_dnn_false_bear_35_n02134418_4485.png
dino_v8,1,994,NaN,boat,keyboard,false,0994_fc_dnn_false_keyboard_35_n03085013_20727.png
dino_v8,1,995,NaN,bear,cat,true,0995_fc_dnn_true_cat_35_n02123394_1122.png
dino_v8,1,996,NaN,cat,cat,true,0996_fc_dnn_true_cat_35_n02123159_7762.png
dino_v8,1,997,NaN,cat,oven,true,0997_fc_dnn_true_oven_35_n04111531_5897.png
dino_v8,1,998,NaN,elephant,cat,false,0998_fc_dnn_false_cat_35_n02125311_23312.png
dino_v8,1,999,NaN,airplane,elephant,false,0999_fc_dnn_false_elephant_35_n02504013_1436.png
dino_v8,1,1000,NaN,oven,bird,false,1000_fc_dnn_false_bird_35_n01622779_11953.png
dino_v8,1,1001,NaN,airplane,elephant,true,1001_fc_dnn_true_elephant_35_n02504458_975.png
dino_v8,1,1002,NaN,airplane,car,true,1002_fc_dnn_true_car_35_n04285008_2841.png
dino_v8,1,1003,NaN,airplane,cat,false,1003_fc_dnn_false_cat_35_n02123597_3575.png
dino_v8,1,1004,NaN,bottle,boat,true,1004_fc_dnn_true_boat_35_n04612504_14418.png
dino_v8,1,1005,NaN,airplane,dog,false,1005_fc_dnn_false_dog_35_n02087394_9938.png
dino_v8,1,1006,NaN,keyboard,chair,true,1006_fc_dnn_true_chair_35_n04429376_17646.png
dino_v8,1,1007,NaN,elephant,chair,true,1007_fc_dnn_true_chair_35_n04099969_6309.png
dino_v8,1,1008,NaN,airplane,bottle,true,1008_fc_dnn_true_bottle_35_n03983396_3331.png
dino_v8,1,1009,NaN,bicycle,keyboard,true,1009_fc_dnn_true_keyboard_35_n04505470_882.png
dino_v8,1,1010,NaN,cat,clock,true,1010_fc_dnn_true_clock_35_n02708093_1124.png
dino_v8,1,1011,NaN,bicycle,clock,false,1011_fc_dnn_false_clock_35_n04548280_17802.png
dino_v8,1,1012,NaN,oven,cat,true,1012_fc_dnn_true_cat_35_n02123045_6507.png
dino_v8,1,1013,NaN,cat,elephant,true,1013_fc_dnn_true_elephant_35_n02504458_379.png
dino_v8,1,1014,NaN,chair,boat,false,1014_fc_dnn_false_boat_35_n03662601_6916.png
dino_v8,1,1015,NaN,bicycle,knife,true,1015_fc_dnn_true_knife_35_n03041632_2390.png
dino_v8,1,1016,NaN,clock,car,true,1016_fc_dnn_true_car_35_n03100240_17973.png
dino_v8,1,1017,NaN,airplane,cat,false,1017_fc_dnn_false_cat_35_n02123597_9467.png
dino_v8,1,1018,NaN,oven,bicycle,false,1018_fc_dnn_false_bicycle_35_n02835271_12028.png
dino_v8,1,1019,NaN,airplane,chair,true,1019_fc_dnn_true_chair_35_n04099969_25327.png
dino_v8,1,1020,NaN,car,bird,true,1020_fc_dnn_true_bird_35_n01818515_8330.png
dino_v8,1,1021,NaN,bicycle,keyboard,false,1021_fc_dnn_false_keyboard_35_n03085013_9244.png
dino_v8,1,1022,NaN,clock,boat,true,1022_fc_dnn_true_boat_35_n02951358_31470.png
dino_v8,1,1023,NaN,airplane,airplane,true,1023_fc_dnn_true_airplane_35_n02690373_10285.png
dino_v8,1,1024,NaN,oven,dog,false,1024_fc_dnn_false_dog_35_n02085782_6241.png
dino_v8,1,1025,NaN,oven,airplane,false,1025_fc_dnn_false_airplane_35_n02690373_5624.png
dino_v8,1,1026,NaN,car,bicycle,false,1026_fc_dnn_false_bicycle_35_n03792782_1418.png
dino_v8,1,1027,NaN,bicycle,dog,true,1027_fc_dnn_true_dog_35_n02096437_1984.png
dino_v8,1,1028,NaN,elephant,car,true,1028_fc_dnn_true_car_35_n04285008_9388.png
dino_v8,1,1029,NaN,knife,truck,true,1029_fc_dnn_true_truck_35_n03417042_26865.png
dino_v8,1,1030,NaN,bottle,dog,true,1030_fc_dnn_true_dog_35_n02105855_18455.png
dino_v8,1,1031,NaN,boat,bicycle,false,1031_fc_dnn_false_bicycle_35_n02835271_8209.png
dino_v8,1,1032,NaN,bear,dog,true,1032_fc_dnn_true_dog_35_n02111129_6560.png
dino_v8,1,1033,NaN,bear,bottle,true,1033_fc_dnn_true_bottle_35_n04579145_5451.png
dino_v8,1,1034,NaN,airplane,bear,true,1034_fc_dnn_true_bear_35_n02133161_6448.png
dino_v8,1,1035,NaN,boat,airplane,false,1035_fc_dnn_false_airplane_35_n02690373_3753.png
dino_v8,1,1036,NaN,airplane,car,false,1036_fc_dnn_false_car_35_n02814533_10329.png
dino_v8,1,1037,NaN,bicycle,chair,true,1037_fc_dnn_true_chair_35_n03376595_1273.png
dino_v8,1,1038,NaN,oven,chair,false,1038_fc_dnn_false_chair_35_n04429376_10453.png
dino_v8,1,1039,NaN,boat,dog,false,1039_fc_dnn_false_dog_35_n02100877_3363.png
dino_v8,1,1040,NaN,car,bird,false,1040_fc_dnn_false_bird_35_n02013706_5736.png
dino_v8,1,1041,NaN,elephant,car,false,1041_fc_dnn_false_car_35_n02814533_31430.png
dino_v8,1,1042,NaN,bicycle,keyboard,false,1042_fc_dnn_false_keyboard_35_n04505470_3499.png
dino_v8,1,1043,NaN,airplane,cat,true,1043_fc_dnn_true_cat_35_n02123597_1410.png
dino_v8,1,1044,NaN,bottle,keyboard,true,1044_fc_dnn_true_keyboard_35_n03085013_8339.png
dino_v8,1,1045,NaN,oven,dog,false,1045_fc_dnn_false_dog_35_n02100877_4371.png
dino_v8,1,1046,NaN,clock,bear,true,1046_fc_dnn_true_bear_35_n02134418_2022.png
dino_v8,1,1047,NaN,airplane,bottle,false,1047_fc_dnn_false_bottle_35_n04557648_3615.png
dino_v8,1,1048,NaN,bear,dog,false,1048_fc_dnn_false_dog_35_n02105056_10931.png
dino_v8,1,1049,NaN,bicycle,knife,true,1049_fc_dnn_true_knife_35_n03041632_8151.png
dino_v8,1,1050,NaN,airplane,bear,false,1050_fc_dnn_false_bear_35_n02132136_7754.png
dino_v8,1,1051,NaN,airplane,cat,false,1051_fc_dnn_false_cat_35_n02123159_6728.png
dino_v8,1,1052,NaN,car,bird,true,1052_fc_dnn_true_bird_35_n01843383_9064.png
dino_v8,1,1053,NaN,keyboard,airplane,true,1053_fc_dnn_true_airplane_35_n02690373_9848.png
dino_v8,1,1054,NaN,truck,knife,false,1054_fc_dnn_false_knife_35_n03041632_18532.png
dino_v8,1,1055,NaN,bicycle,oven,true,1055_fc_dnn_true_oven_35_n04111531_13479.png
dino_v8,1,1056,NaN,oven,oven,true,1056_fc_dnn_true_oven_35_n04111531_9762.png
dino_v8,1,1057,NaN,car,knife,false,1057_fc_dnn_false_knife_35_n03041632_104379.png
dino_v8,1,1058,NaN,airplane,car,false,1058_fc_dnn_false_car_35_n03100240_9412.png
dino_v8,1,1059,NaN,boat,airplane,false,1059_fc_dnn_false_airplane_35_n02690373_6831.png
dino_v8,1,1060,NaN,chair,bird,true,1060_fc_dnn_true_bird_35_n01855672_13403.png
dino_v8,1,1061,NaN,oven,oven,false,1061_fc_dnn_false_oven_35_n04111531_5473.png
dino_v8,1,1062,NaN,cat,elephant,true,1062_fc_dnn_true_elephant_35_n02504458_5412.png
dino_v8,1,1063,NaN,bicycle,truck,true,1063_fc_dnn_true_truck_35_n03796401_6596.png
dino_v8,1,1064,NaN,cat,bicycle,false,1064_fc_dnn_false_bicycle_35_n02835271_927.png
dino_v8,1,1065,NaN,bicycle,dog,false,1065_fc_dnn_false_dog_35_n02093428_8946.png
dino_v8,1,1066,NaN,car,oven,true,1066_fc_dnn_true_oven_35_n04111531_7034.png
dino_v8,1,1067,NaN,knife,dog,false,1067_fc_dnn_false_dog_35_n02113023_863.png
dino_v8,1,1068,NaN,bottle,knife,false,1068_fc_dnn_false_knife_35_n03041632_13645.png
dino_v8,1,1069,NaN,elephant,chair,true,1069_fc_dnn_true_chair_35_n04429376_3452.png
dino_v8,1,1070,NaN,car,bird,false,1070_fc_dnn_false_bird_35_n01798484_9481.png
dino_v8,1,1071,NaN,bicycle,chair,false,1071_fc_dnn_false_chair_35_n04429376_5067.png
dino_v8,1,1072,NaN,chair,keyboard,false,1072_fc_dnn_false_keyboard_35_n04505470_5092.png
dino_v8,1,1073,NaN,boat,truck,true,1073_fc_dnn_true_truck_35_n03796401_3386.png
dino_v8,1,1074,NaN,boat,dog,true,1074_fc_dnn_true_dog_35_n02088466_7803.png
dino_v8,1,1075,NaN,airplane,bear,true,1075_fc_dnn_true_bear_35_n02133161_1302.png
dino_v8,1,1076,NaN,bicycle,chair,false,1076_fc_dnn_false_chair_35_n02791124_17045.png
dino_v8,1,1077,NaN,boat,bear,false,1077_fc_dnn_false_bear_35_n02132136_19521.png
dino_v8,1,1078,NaN,bicycle,chair,true,1078_fc_dnn_true_chair_35_n04099969_7998.png
dino_v8,1,1079,NaN,bear,clock,false,1079_fc_dnn_false_clock_35_n02708093_5734.png
dino_v8,1,1080,NaN,clock,truck,true,1080_fc_dnn_true_truck_35_n04467665_21542.png
dino_v8,1,1081,NaN,airplane,oven,false,1081_fc_dnn_false_oven_35_n04111531_5126.png
dino_v8,1,1082,NaN,oven,oven,false,1082_fc_dnn_false_oven_35_n04111531_11935.png
dino_v8,1,1083,NaN,cat,bicycle,false,1083_fc_dnn_false_bicycle_35_n03792782_626.png
dino_v8,1,1084,NaN,car,truck,true,1084_fc_dnn_true_truck_35_n03417042_9018.png
dino_v8,1,1085,NaN,keyboard,elephant,false,1085_fc_dnn_false_elephant_35_n02504458_6738.png
dino_v8,1,1086,NaN,oven,bicycle,true,1086_fc_dnn_true_bicycle_35_n03792782_17545.png
dino_v8,1,1087,NaN,airplane,clock,true,1087_fc_dnn_true_clock_35_n03196217_3351.png
dino_v8,1,1088,NaN,oven,bicycle,false,1088_fc_dnn_false_bicycle_35_n03792782_16819.png
dino_v8,1,1089,NaN,airplane,elephant,false,1089_fc_dnn_false_elephant_35_n02504458_13245.png
dino_v8,1,1090,NaN,keyboard,bird,false,1090_fc_dnn_false_bird_35_n01531178_53368.png
dino_v8,1,1091,NaN,bear,clock,false,1091_fc_dnn_false_clock_35_n04548280_3994.png
dino_v8,1,1092,NaN,elephant,bird,true,1092_fc_dnn_true_bird_35_n01828970_11339.png
dino_v8,1,1093,NaN,oven,truck,false,1093_fc_dnn_false_truck_35_n03796401_19114.png
dino_v8,1,1094,NaN,clock,oven,false,1094_fc_dnn_false_oven_35_n04111531_22138.png
dino_v8,1,1095,NaN,cat,clock,false,1095_fc_dnn_false_clock_35_n02708093_585.png
dino_v8,1,1096,NaN,airplane,car,false,1096_fc_dnn_false_car_35_n02814533_52866.png
dino_v8,1,1097,NaN,knife,knife,false,1097_fc_dnn_false_knife_35_n03041632_94470.png
dino_v8,1,1098,NaN,cat,airplane,true,1098_fc_dnn_true_airplane_35_n02690373_4814.png
dino_v8,1,1099,NaN,car,bicycle,true,1099_fc_dnn_true_bicycle_35_n03792782_16961.png
dino_v8,1,1100,NaN,airplane,cat,true,1100_fc_dnn_true_cat_35_n02123159_3655.png
dino_v8,1,1101,NaN,car,chair,false,1101_fc_dnn_false_chair_35_n03376595_120.png
dino_v8,1,1102,NaN,cat,airplane,false,1102_fc_dnn_false_airplane_35_n02690373_7573.png
dino_v8,1,1103,NaN,chair,boat,true,1103_fc_dnn_true_boat_35_n03662601_8221.png
dino_v8,1,1104,NaN,elephant,chair,true,1104_fc_dnn_true_chair_35_n03376595_4322.png
dino_v8,1,1105,NaN,airplane,bear,false,1105_fc_dnn_false_bear_35_n02133161_11351.png
dino_v8,1,1106,NaN,bicycle,truck,false,1106_fc_dnn_false_truck_35_n04467665_46470.png
dino_v8,1,1107,NaN,airplane,bottle,true,1107_fc_dnn_true_bottle_35_n03983396_8768.png
dino_v8,1,1108,NaN,oven,clock,false,1108_fc_dnn_false_clock_35_n04548280_1022.png
dino_v8,1,1109,NaN,cat,bicycle,true,1109_fc_dnn_true_bicycle_35_n03792782_4403.png
dino_v8,1,1110,NaN,elephant,airplane,false,1110_fc_dnn_false_airplane_35_n02690373_1831.png
dino_v8,1,1111,NaN,car,elephant,true,1111_fc_dnn_true_elephant_35_n02504013_6466.png
dino_v8,1,1112,NaN,airplane,oven,true,1112_fc_dnn_true_oven_35_n04111531_4227.png
dino_v8,1,1113,NaN,airplane,car,false,1113_fc_dnn_false_car_35_n02814533_33576.png
dino_v8,1,1114,NaN,keyboard,boat,false,1114_fc_dnn_false_boat_35_n03344393_5198.png
dino_v8,1,1115,NaN,oven,knife,true,1115_fc_dnn_true_knife_35_n03041632_15431.png
dino_v8,1,1116,NaN,airplane,cat,true,1116_fc_dnn_true_cat_35_n02125311_36167.png
dino_v8,1,1117,NaN,oven,boat,true,1117_fc_dnn_true_boat_35_n04612504_13668.png
dino_v8,1,1118,NaN,chair,boat,true,1118_fc_dnn_true_boat_35_n03662601_11862.png
dino_v8,1,1119,NaN,oven,boat,false,1119_fc_dnn_false_boat_35_n02951358_7006.png
dino_v8,1,1120,NaN,airplane,clock,false,1120_fc_dnn_false_clock_35_n03196217_958.png
