subj,session,trial,rt,object_response,category,condition,imagename
mlp_mixer_l_in21,1,1,NaN,bird,chair,0,0001_rot_dnn_0_chair_20_n03376595_3070.png
mlp_mixer_l_in21,1,2,NaN,chair,car,180,0002_rot_dnn_180_car_20_n02814533_29367.png
mlp_mixer_l_in21,1,3,NaN,chair,car,270,0003_rot_dnn_270_car_20_n02814533_31083.png
mlp_mixer_l_in21,1,4,NaN,bird,car,180,0004_rot_dnn_180_car_20_n03100240_1703.png
mlp_mixer_l_in21,1,5,NaN,oven,bottle,180,0005_rot_dnn_180_bottle_20_n04591713_2359.png
mlp_mixer_l_in21,1,6,NaN,bird,dog,90,0006_rot_dnn_90_dog_20_n02111500_8796.png
mlp_mixer_l_in21,1,7,NaN,bear,bear,180,0007_rot_dnn_180_bear_20_n02132136_4512.png
mlp_mixer_l_in21,1,8,NaN,chair,chair,90,0008_rot_dnn_90_chair_20_n03376595_4820.png
mlp_mixer_l_in21,1,9,NaN,bottle,bottle,270,0009_rot_dnn_270_bottle_20_n04591713_6111.png
mlp_mixer_l_in21,1,10,NaN,dog,bottle,270,0010_rot_dnn_270_bottle_20_n04560804_14111.png
mlp_mixer_l_in21,1,11,NaN,dog,dog,0,0011_rot_dnn_0_dog_20_n02099601_8656.png
mlp_mixer_l_in21,1,12,NaN,dog,cat,0,0012_rot_dnn_0_cat_20_n02125311_14054.png
mlp_mixer_l_in21,1,13,NaN,car,bear,0,0013_rot_dnn_0_bear_20_n02132136_10385.png
mlp_mixer_l_in21,1,14,NaN,elephant,bottle,90,0014_rot_dnn_90_bottle_20_n02823428_10417.png
mlp_mixer_l_in21,1,15,NaN,car,keyboard,0,0015_rot_dnn_0_keyboard_20_n03085013_23566.png
mlp_mixer_l_in21,1,16,NaN,oven,truck,90,0016_rot_dnn_90_truck_20_n03417042_12560.png
mlp_mixer_l_in21,1,17,NaN,bird,truck,180,0017_rot_dnn_180_truck_20_n04467665_69063.png
mlp_mixer_l_in21,1,18,NaN,clock,oven,180,0018_rot_dnn_180_oven_20_n04111531_9712.png
mlp_mixer_l_in21,1,19,NaN,car,oven,180,0019_rot_dnn_180_oven_20_n04111531_10375.png
mlp_mixer_l_in21,1,20,NaN,clock,keyboard,0,0020_rot_dnn_0_keyboard_20_n04505470_1744.png
mlp_mixer_l_in21,1,21,NaN,bird,boat,90,0021_rot_dnn_90_boat_20_n04273569_7296.png
mlp_mixer_l_in21,1,22,NaN,dog,dog,0,0022_rot_dnn_0_dog_20_n02101006_4807.png
mlp_mixer_l_in21,1,23,NaN,bird,clock,90,0023_rot_dnn_90_clock_20_n02708093_1986.png
mlp_mixer_l_in21,1,24,NaN,oven,bottle,0,0024_rot_dnn_0_bottle_20_n04560804_15562.png
mlp_mixer_l_in21,1,25,NaN,dog,cat,0,0025_rot_dnn_0_cat_20_n02124075_13594.png
mlp_mixer_l_in21,1,26,NaN,car,bear,90,0026_rot_dnn_90_bear_20_n02134418_4365.png
mlp_mixer_l_in21,1,27,NaN,knife,bear,180,0027_rot_dnn_180_bear_20_n02132136_8650.png
mlp_mixer_l_in21,1,28,NaN,bear,bird,90,0028_rot_dnn_90_bird_20_n02009912_12219.png
mlp_mixer_l_in21,1,29,NaN,bird,dog,90,0029_rot_dnn_90_dog_20_n02100236_1662.png
mlp_mixer_l_in21,1,30,NaN,clock,clock,90,0030_rot_dnn_90_clock_20_n04548280_1947.png
mlp_mixer_l_in21,1,31,NaN,clock,dog,270,0031_rot_dnn_270_dog_20_n02109047_66167.png
mlp_mixer_l_in21,1,32,NaN,clock,oven,90,0032_rot_dnn_90_oven_20_n04111531_21055.png
mlp_mixer_l_in21,1,33,NaN,bird,clock,0,0033_rot_dnn_0_clock_20_n02708093_2012.png
mlp_mixer_l_in21,1,34,NaN,dog,elephant,0,0034_rot_dnn_0_elephant_20_n02504458_6119.png
mlp_mixer_l_in21,1,35,NaN,dog,chair,0,0035_rot_dnn_0_chair_20_n04099969_12707.png
mlp_mixer_l_in21,1,36,NaN,car,keyboard,270,0036_rot_dnn_270_keyboard_20_n03085013_19054.png
mlp_mixer_l_in21,1,37,NaN,dog,chair,0,0037_rot_dnn_0_chair_20_n02791124_422.png
mlp_mixer_l_in21,1,38,NaN,bird,bicycle,0,0038_rot_dnn_0_bicycle_20_n02835271_23830.png
mlp_mixer_l_in21,1,39,NaN,truck,bird,90,0039_rot_dnn_90_bird_20_n01534433_14735.png
mlp_mixer_l_in21,1,40,NaN,car,bird,90,0040_rot_dnn_90_bird_20_n02011460_13994.png
mlp_mixer_l_in21,1,41,NaN,truck,boat,270,0041_rot_dnn_270_boat_20_n04273569_17522.png
mlp_mixer_l_in21,1,42,NaN,dog,bear,180,0042_rot_dnn_180_bear_20_n02132136_5537.png
mlp_mixer_l_in21,1,43,NaN,dog,bear,90,0043_rot_dnn_90_bear_20_n02132136_19248.png
mlp_mixer_l_in21,1,44,NaN,car,bird,270,0044_rot_dnn_270_bird_20_n01537544_1886.png
mlp_mixer_l_in21,1,45,NaN,elephant,clock,180,0045_rot_dnn_180_clock_20_n03196217_4776.png
mlp_mixer_l_in21,1,46,NaN,car,boat,270,0046_rot_dnn_270_boat_20_n04612504_17610.png
mlp_mixer_l_in21,1,47,NaN,dog,bear,90,0047_rot_dnn_90_bear_20_n02134418_1814.png
mlp_mixer_l_in21,1,48,NaN,car,keyboard,180,0048_rot_dnn_180_keyboard_20_n03085013_20330.png
mlp_mixer_l_in21,1,49,NaN,bird,bottle,180,0049_rot_dnn_180_bottle_20_n02823428_14574.png
mlp_mixer_l_in21,1,50,NaN,bird,bicycle,0,0050_rot_dnn_0_bicycle_20_n03792782_7105.png
mlp_mixer_l_in21,1,51,NaN,dog,elephant,0,0051_rot_dnn_0_elephant_20_n02504458_1302.png
mlp_mixer_l_in21,1,52,NaN,dog,airplane,90,0052_rot_dnn_90_airplane_20_n02690373_3877.png
mlp_mixer_l_in21,1,53,NaN,bird,boat,90,0053_rot_dnn_90_boat_20_n02951358_15422.png
mlp_mixer_l_in21,1,54,NaN,oven,car,270,0054_rot_dnn_270_car_20_n02814533_46458.png
mlp_mixer_l_in21,1,55,NaN,elephant,car,0,0055_rot_dnn_0_car_20_n02814533_39547.png
mlp_mixer_l_in21,1,56,NaN,bird,boat,180,0056_rot_dnn_180_boat_20_n04273569_6586.png
mlp_mixer_l_in21,1,57,NaN,car,clock,90,0057_rot_dnn_90_clock_20_n02708093_3394.png
mlp_mixer_l_in21,1,58,NaN,oven,keyboard,180,0058_rot_dnn_180_keyboard_20_n03085013_25419.png
mlp_mixer_l_in21,1,59,NaN,oven,bottle,180,0059_rot_dnn_180_bottle_20_n04557648_1871.png
mlp_mixer_l_in21,1,60,NaN,bird,chair,90,0060_rot_dnn_90_chair_20_n04099969_6944.png
mlp_mixer_l_in21,1,61,NaN,bird,boat,270,0061_rot_dnn_270_boat_20_n04273569_1495.png
mlp_mixer_l_in21,1,62,NaN,dog,keyboard,90,0062_rot_dnn_90_keyboard_20_n03085013_7317.png
mlp_mixer_l_in21,1,63,NaN,bird,knife,90,0063_rot_dnn_90_knife_20_n03041632_7448.png
mlp_mixer_l_in21,1,64,NaN,dog,truck,0,0064_rot_dnn_0_truck_20_n03417042_11000.png
mlp_mixer_l_in21,1,65,NaN,truck,bird,0,0065_rot_dnn_0_bird_20_n01582220_8827.png
mlp_mixer_l_in21,1,66,NaN,bird,airplane,270,0066_rot_dnn_270_airplane_20_n02690373_9247.png
mlp_mixer_l_in21,1,67,NaN,dog,bear,270,0067_rot_dnn_270_bear_20_n02133161_14397.png
mlp_mixer_l_in21,1,68,NaN,car,oven,270,0068_rot_dnn_270_oven_20_n04111531_13560.png
mlp_mixer_l_in21,1,69,NaN,clock,bear,180,0069_rot_dnn_180_bear_20_n02132136_545.png
mlp_mixer_l_in21,1,70,NaN,car,cat,90,0070_rot_dnn_90_cat_20_n02125311_73072.png
mlp_mixer_l_in21,1,71,NaN,bird,bicycle,0,0071_rot_dnn_0_bicycle_20_n03792782_30530.png
mlp_mixer_l_in21,1,72,NaN,bird,knife,90,0072_rot_dnn_90_knife_20_n03041632_4975.png
mlp_mixer_l_in21,1,73,NaN,dog,dog,90,0073_rot_dnn_90_dog_20_n02107683_3120.png
mlp_mixer_l_in21,1,74,NaN,oven,elephant,90,0074_rot_dnn_90_elephant_20_n02504013_7316.png
mlp_mixer_l_in21,1,75,NaN,bird,truck,90,0075_rot_dnn_90_truck_20_n03796401_7284.png
mlp_mixer_l_in21,1,76,NaN,bird,chair,270,0076_rot_dnn_270_chair_20_n03376595_497.png
mlp_mixer_l_in21,1,77,NaN,bird,truck,270,0077_rot_dnn_270_truck_20_n03796401_19845.png
mlp_mixer_l_in21,1,78,NaN,bird,chair,90,0078_rot_dnn_90_chair_20_n04099969_1941.png
mlp_mixer_l_in21,1,79,NaN,oven,truck,90,0079_rot_dnn_90_truck_20_n03417042_28886.png
mlp_mixer_l_in21,1,80,NaN,elephant,car,0,0080_rot_dnn_0_car_20_n02814533_12185.png
mlp_mixer_l_in21,1,81,NaN,cat,bicycle,90,0081_rot_dnn_90_bicycle_20_n02835271_1621.png
mlp_mixer_l_in21,1,82,NaN,dog,cat,0,0082_rot_dnn_0_cat_20_n02123597_32226.png
mlp_mixer_l_in21,1,83,NaN,car,bicycle,90,0083_rot_dnn_90_bicycle_20_n03792782_5048.png
mlp_mixer_l_in21,1,84,NaN,bird,airplane,0,0084_rot_dnn_0_airplane_20_n02690373_10044.png
mlp_mixer_l_in21,1,85,NaN,car,car,180,0085_rot_dnn_180_car_20_n03100240_5752.png
mlp_mixer_l_in21,1,86,NaN,oven,car,90,0086_rot_dnn_90_car_20_n02814533_68219.png
mlp_mixer_l_in21,1,87,NaN,car,airplane,0,0087_rot_dnn_0_airplane_20_n02690373_1171.png
mlp_mixer_l_in21,1,88,NaN,car,bird,90,0088_rot_dnn_90_bird_20_n01817953_6970.png
mlp_mixer_l_in21,1,89,NaN,oven,car,90,0089_rot_dnn_90_car_20_n04285008_15503.png
mlp_mixer_l_in21,1,90,NaN,bird,boat,270,0090_rot_dnn_270_boat_20_n03344393_11886.png
mlp_mixer_l_in21,1,91,NaN,bird,boat,0,0091_rot_dnn_0_boat_20_n04273569_30203.png
mlp_mixer_l_in21,1,92,NaN,chair,keyboard,180,0092_rot_dnn_180_keyboard_20_n03085013_22069.png
mlp_mixer_l_in21,1,93,NaN,knife,knife,0,0093_rot_dnn_0_knife_20_n03041632_26314.png
mlp_mixer_l_in21,1,94,NaN,clock,bicycle,270,0094_rot_dnn_270_bicycle_20_n03792782_18308.png
mlp_mixer_l_in21,1,95,NaN,bird,car,180,0095_rot_dnn_180_car_20_n04285008_8396.png
mlp_mixer_l_in21,1,96,NaN,bird,bear,90,0096_rot_dnn_90_bear_20_n02133161_12349.png
mlp_mixer_l_in21,1,97,NaN,dog,bear,270,0097_rot_dnn_270_bear_20_n02132136_18303.png
mlp_mixer_l_in21,1,98,NaN,dog,cat,180,0098_rot_dnn_180_cat_20_n02123394_6853.png
mlp_mixer_l_in21,1,99,NaN,oven,cat,180,0099_rot_dnn_180_cat_20_n02123597_4805.png
mlp_mixer_l_in21,1,100,NaN,car,car,0,0100_rot_dnn_0_car_20_n03100240_17587.png
mlp_mixer_l_in21,1,101,NaN,car,bird,180,0101_rot_dnn_180_bird_20_n01601694_19236.png
mlp_mixer_l_in21,1,102,NaN,dog,cat,0,0102_rot_dnn_0_cat_20_n02123597_2341.png
mlp_mixer_l_in21,1,103,NaN,bird,elephant,270,0103_rot_dnn_270_elephant_20_n02504013_7883.png
mlp_mixer_l_in21,1,104,NaN,oven,chair,270,0104_rot_dnn_270_chair_20_n03376595_14240.png
mlp_mixer_l_in21,1,105,NaN,car,airplane,0,0105_rot_dnn_0_airplane_20_n02690373_10188.png
mlp_mixer_l_in21,1,106,NaN,bird,truck,90,0106_rot_dnn_90_truck_20_n03417042_8634.png
mlp_mixer_l_in21,1,107,NaN,elephant,knife,90,0107_rot_dnn_90_knife_20_n03041632_32774.png
mlp_mixer_l_in21,1,108,NaN,knife,bottle,90,0108_rot_dnn_90_bottle_20_n03983396_4115.png
mlp_mixer_l_in21,1,109,NaN,clock,clock,270,0109_rot_dnn_270_clock_20_n04548280_8552.png
mlp_mixer_l_in21,1,110,NaN,oven,car,0,0110_rot_dnn_0_car_20_n02814533_6233.png
mlp_mixer_l_in21,1,111,NaN,bird,elephant,0,0111_rot_dnn_0_elephant_20_n02504458_9870.png
mlp_mixer_l_in21,1,112,NaN,car,bicycle,270,0112_rot_dnn_270_bicycle_20_n02835271_3956.png
mlp_mixer_l_in21,1,113,NaN,car,knife,90,0113_rot_dnn_90_knife_20_n03041632_14817.png
mlp_mixer_l_in21,1,114,NaN,bird,chair,90,0114_rot_dnn_90_chair_20_n04099969_8642.png
mlp_mixer_l_in21,1,115,NaN,elephant,clock,0,0115_rot_dnn_0_clock_20_n02708093_240.png
mlp_mixer_l_in21,1,116,NaN,dog,bear,180,0116_rot_dnn_180_bear_20_n02133161_3896.png
mlp_mixer_l_in21,1,117,NaN,chair,bottle,270,0117_rot_dnn_270_bottle_20_n04557648_11000.png
mlp_mixer_l_in21,1,118,NaN,clock,keyboard,90,0118_rot_dnn_90_keyboard_20_n03085013_2853.png
mlp_mixer_l_in21,1,119,NaN,boat,boat,90,0119_rot_dnn_90_boat_20_n04273569_7097.png
mlp_mixer_l_in21,1,120,NaN,bird,bicycle,270,0120_rot_dnn_270_bicycle_20_n03792782_40932.png
mlp_mixer_l_in21,1,121,NaN,car,chair,270,0121_rot_dnn_270_chair_20_n04429376_44914.png
mlp_mixer_l_in21,1,122,NaN,dog,bear,180,0122_rot_dnn_180_bear_20_n02134418_2122.png
mlp_mixer_l_in21,1,123,NaN,dog,keyboard,90,0123_rot_dnn_90_keyboard_20_n03085013_22704.png
mlp_mixer_l_in21,1,124,NaN,bird,truck,0,0124_rot_dnn_0_truck_20_n03417042_6838.png
mlp_mixer_l_in21,1,125,NaN,dog,elephant,0,0125_rot_dnn_0_elephant_20_n02504458_3628.png
mlp_mixer_l_in21,1,126,NaN,dog,cat,90,0126_rot_dnn_90_cat_20_n02123597_10141.png
mlp_mixer_l_in21,1,127,NaN,bird,bicycle,0,0127_rot_dnn_0_bicycle_20_n02835271_6383.png
mlp_mixer_l_in21,1,128,NaN,bird,car,180,0128_rot_dnn_180_car_20_n04285008_7154.png
mlp_mixer_l_in21,1,129,NaN,truck,bird,0,0129_rot_dnn_0_bird_20_n02007558_1068.png
mlp_mixer_l_in21,1,130,NaN,dog,cat,90,0130_rot_dnn_90_cat_20_n02125311_1896.png
mlp_mixer_l_in21,1,131,NaN,oven,keyboard,0,0131_rot_dnn_0_keyboard_20_n04505470_1903.png
mlp_mixer_l_in21,1,132,NaN,bird,bicycle,90,0132_rot_dnn_90_bicycle_20_n03792782_66159.png
mlp_mixer_l_in21,1,133,NaN,dog,bear,90,0133_rot_dnn_90_bear_20_n02134418_5219.png
mlp_mixer_l_in21,1,134,NaN,chair,car,90,0134_rot_dnn_90_car_20_n02814533_92229.png
mlp_mixer_l_in21,1,135,NaN,car,dog,90,0135_rot_dnn_90_dog_20_n02090721_1002.png
mlp_mixer_l_in21,1,136,NaN,clock,truck,270,0136_rot_dnn_270_truck_20_n04467665_46263.png
mlp_mixer_l_in21,1,137,NaN,car,bottle,180,0137_rot_dnn_180_bottle_20_n03983396_704.png
mlp_mixer_l_in21,1,138,NaN,bird,truck,180,0138_rot_dnn_180_truck_20_n03796401_4149.png
mlp_mixer_l_in21,1,139,NaN,car,bird,0,0139_rot_dnn_0_bird_20_n02006656_2030.png
mlp_mixer_l_in21,1,140,NaN,dog,cat,90,0140_rot_dnn_90_cat_20_n02123394_234.png
mlp_mixer_l_in21,1,141,NaN,chair,chair,90,0141_rot_dnn_90_chair_20_n04429376_19916.png
mlp_mixer_l_in21,1,142,NaN,oven,truck,270,0142_rot_dnn_270_truck_20_n04467665_14024.png
mlp_mixer_l_in21,1,143,NaN,bird,chair,90,0143_rot_dnn_90_chair_20_n04429376_14729.png
mlp_mixer_l_in21,1,144,NaN,oven,car,270,0144_rot_dnn_270_car_20_n02814533_82321.png
mlp_mixer_l_in21,1,145,NaN,knife,clock,180,0145_rot_dnn_180_clock_20_n04548280_3701.png
mlp_mixer_l_in21,1,146,NaN,clock,boat,270,0146_rot_dnn_270_boat_20_n02951358_11442.png
mlp_mixer_l_in21,1,147,NaN,car,bear,90,0147_rot_dnn_90_bear_20_n02132136_17349.png
mlp_mixer_l_in21,1,148,NaN,truck,airplane,90,0148_rot_dnn_90_airplane_20_n02690373_4982.png
mlp_mixer_l_in21,1,149,NaN,car,airplane,0,0149_rot_dnn_0_airplane_20_n02690373_2232.png
mlp_mixer_l_in21,1,150,NaN,dog,cat,180,0150_rot_dnn_180_cat_20_n02123045_909.png
mlp_mixer_l_in21,1,151,NaN,dog,clock,180,0151_rot_dnn_180_clock_20_n04548280_1190.png
mlp_mixer_l_in21,1,152,NaN,bird,oven,90,0152_rot_dnn_90_oven_20_n04111531_1855.png
mlp_mixer_l_in21,1,153,NaN,dog,boat,270,0153_rot_dnn_270_boat_20_n03662601_21408.png
mlp_mixer_l_in21,1,154,NaN,clock,dog,90,0154_rot_dnn_90_dog_20_n02088364_15877.png
mlp_mixer_l_in21,1,155,NaN,bird,knife,90,0155_rot_dnn_90_knife_20_n03041632_15250.png
mlp_mixer_l_in21,1,156,NaN,chair,oven,0,0156_rot_dnn_0_oven_20_n04111531_17006.png
mlp_mixer_l_in21,1,157,NaN,clock,clock,90,0157_rot_dnn_90_clock_20_n04548280_11763.png
mlp_mixer_l_in21,1,158,NaN,car,bird,270,0158_rot_dnn_270_bird_20_n02028035_8327.png
mlp_mixer_l_in21,1,159,NaN,bird,car,90,0159_rot_dnn_90_car_20_n04285008_5641.png
mlp_mixer_l_in21,1,160,NaN,bird,oven,90,0160_rot_dnn_90_oven_20_n04111531_10727.png
mlp_mixer_l_in21,1,161,NaN,dog,elephant,270,0161_rot_dnn_270_elephant_20_n02504458_1971.png
mlp_mixer_l_in21,1,162,NaN,chair,bottle,180,0162_rot_dnn_180_bottle_20_n04560804_15941.png
mlp_mixer_l_in21,1,163,NaN,dog,elephant,0,0163_rot_dnn_0_elephant_20_n02504458_151.png
mlp_mixer_l_in21,1,164,NaN,dog,bear,180,0164_rot_dnn_180_bear_20_n02133161_15427.png
mlp_mixer_l_in21,1,165,NaN,dog,bear,180,0165_rot_dnn_180_bear_20_n02134084_20605.png
mlp_mixer_l_in21,1,166,NaN,knife,bottle,90,0166_rot_dnn_90_bottle_20_n04560804_2693.png
mlp_mixer_l_in21,1,167,NaN,chair,airplane,270,0167_rot_dnn_270_airplane_20_n02690373_8214.png
mlp_mixer_l_in21,1,168,NaN,bird,boat,0,0168_rot_dnn_0_boat_20_n02951358_14966.png
mlp_mixer_l_in21,1,169,NaN,bird,knife,90,0169_rot_dnn_90_knife_20_n03041632_14801.png
mlp_mixer_l_in21,1,170,NaN,bird,dog,90,0170_rot_dnn_90_dog_20_n02110063_8776.png
mlp_mixer_l_in21,1,171,NaN,car,dog,180,0171_rot_dnn_180_dog_20_n02100236_7671.png
mlp_mixer_l_in21,1,172,NaN,dog,oven,0,0172_rot_dnn_0_oven_20_n04111531_21248.png
mlp_mixer_l_in21,1,173,NaN,car,knife,270,0173_rot_dnn_270_knife_20_n03041632_17100.png
mlp_mixer_l_in21,1,174,NaN,bird,knife,0,0174_rot_dnn_0_knife_20_n03041632_3781.png
mlp_mixer_l_in21,1,175,NaN,oven,oven,270,0175_rot_dnn_270_oven_20_n04111531_46651.png
mlp_mixer_l_in21,1,176,NaN,knife,clock,0,0176_rot_dnn_0_clock_20_n04548280_8303.png
mlp_mixer_l_in21,1,177,NaN,car,airplane,0,0177_rot_dnn_0_airplane_20_n02690373_2070.png
mlp_mixer_l_in21,1,178,NaN,elephant,car,180,0178_rot_dnn_180_car_20_n03100240_574.png
mlp_mixer_l_in21,1,179,NaN,dog,dog,90,0179_rot_dnn_90_dog_20_n02095570_11263.png
mlp_mixer_l_in21,1,180,NaN,elephant,bottle,180,0180_rot_dnn_180_bottle_20_n03983396_9667.png
mlp_mixer_l_in21,1,181,NaN,car,clock,0,0181_rot_dnn_0_clock_20_n02708093_3535.png
mlp_mixer_l_in21,1,182,NaN,boat,bird,180,0182_rot_dnn_180_bird_20_n01531178_17239.png
mlp_mixer_l_in21,1,183,NaN,chair,elephant,180,0183_rot_dnn_180_elephant_20_n02504458_2272.png
mlp_mixer_l_in21,1,184,NaN,oven,knife,90,0184_rot_dnn_90_knife_20_n03041632_50648.png
mlp_mixer_l_in21,1,185,NaN,dog,knife,0,0185_rot_dnn_0_knife_20_n03041632_33225.png
mlp_mixer_l_in21,1,186,NaN,car,airplane,0,0186_rot_dnn_0_airplane_20_n02690373_736.png
mlp_mixer_l_in21,1,187,NaN,oven,knife,270,0187_rot_dnn_270_knife_20_n03041632_2546.png
mlp_mixer_l_in21,1,188,NaN,bird,boat,180,0188_rot_dnn_180_boat_20_n04273569_13053.png
mlp_mixer_l_in21,1,189,NaN,bird,airplane,180,0189_rot_dnn_180_airplane_20_n02690373_3588.png
mlp_mixer_l_in21,1,190,NaN,dog,keyboard,0,0190_rot_dnn_0_keyboard_20_n03085013_21004.png
mlp_mixer_l_in21,1,191,NaN,bird,boat,180,0191_rot_dnn_180_boat_20_n03662601_16627.png
mlp_mixer_l_in21,1,192,NaN,car,bird,180,0192_rot_dnn_180_bird_20_n02017213_6478.png
mlp_mixer_l_in21,1,193,NaN,dog,bear,90,0193_rot_dnn_90_bear_20_n02134418_998.png
mlp_mixer_l_in21,1,194,NaN,car,truck,90,0194_rot_dnn_90_truck_20_n04467665_71055.png
mlp_mixer_l_in21,1,195,NaN,oven,car,90,0195_rot_dnn_90_car_20_n02814533_23979.png
mlp_mixer_l_in21,1,196,NaN,bird,elephant,180,0196_rot_dnn_180_elephant_20_n02504458_6805.png
mlp_mixer_l_in21,1,197,NaN,car,clock,90,0197_rot_dnn_90_clock_20_n04548280_4841.png
mlp_mixer_l_in21,1,198,NaN,oven,boat,90,0198_rot_dnn_90_boat_20_n03662601_6832.png
mlp_mixer_l_in21,1,199,NaN,elephant,oven,270,0199_rot_dnn_270_oven_20_n04111531_766.png
mlp_mixer_l_in21,1,200,NaN,bird,clock,0,0200_rot_dnn_0_clock_20_n04548280_1305.png
mlp_mixer_l_in21,1,201,NaN,bird,bicycle,0,0201_rot_dnn_0_bicycle_20_n03792782_19083.png
mlp_mixer_l_in21,1,202,NaN,dog,bird,90,0202_rot_dnn_90_bird_20_n01860187_20081.png
mlp_mixer_l_in21,1,203,NaN,car,oven,0,0203_rot_dnn_0_oven_20_n04111531_4817.png
mlp_mixer_l_in21,1,204,NaN,car,car,180,0204_rot_dnn_180_car_20_n02814533_33360.png
mlp_mixer_l_in21,1,205,NaN,elephant,clock,270,0205_rot_dnn_270_clock_20_n04548280_4035.png
mlp_mixer_l_in21,1,206,NaN,car,keyboard,270,0206_rot_dnn_270_keyboard_20_n03085013_7879.png
mlp_mixer_l_in21,1,207,NaN,elephant,airplane,0,0207_rot_dnn_0_airplane_20_n02690373_2598.png
mlp_mixer_l_in21,1,208,NaN,dog,cat,180,0208_rot_dnn_180_cat_20_n02123045_436.png
mlp_mixer_l_in21,1,209,NaN,chair,airplane,270,0209_rot_dnn_270_airplane_20_n02690373_813.png
mlp_mixer_l_in21,1,210,NaN,dog,cat,0,0210_rot_dnn_0_cat_20_n02123159_1008.png
mlp_mixer_l_in21,1,211,NaN,car,bottle,90,0211_rot_dnn_90_bottle_20_n03983396_5452.png
mlp_mixer_l_in21,1,212,NaN,dog,dog,90,0212_rot_dnn_90_dog_20_n02090379_13010.png
mlp_mixer_l_in21,1,213,NaN,bird,chair,180,0213_rot_dnn_180_chair_20_n04099969_4162.png
mlp_mixer_l_in21,1,214,NaN,elephant,keyboard,270,0214_rot_dnn_270_keyboard_20_n04505470_206.png
mlp_mixer_l_in21,1,215,NaN,dog,cat,0,0215_rot_dnn_0_cat_20_n02123045_5290.png
mlp_mixer_l_in21,1,216,NaN,bird,bird,180,0216_rot_dnn_180_bird_20_n01843383_6001.png
mlp_mixer_l_in21,1,217,NaN,bird,knife,0,0217_rot_dnn_0_knife_20_n03041632_24376.png
mlp_mixer_l_in21,1,218,NaN,dog,bicycle,90,0218_rot_dnn_90_bicycle_20_n02835271_2915.png
mlp_mixer_l_in21,1,219,NaN,bird,bicycle,0,0219_rot_dnn_0_bicycle_20_n03792782_5517.png
mlp_mixer_l_in21,1,220,NaN,bird,bicycle,90,0220_rot_dnn_90_bicycle_20_n02835271_7053.png
mlp_mixer_l_in21,1,221,NaN,clock,clock,180,0221_rot_dnn_180_clock_20_n04548280_7115.png
mlp_mixer_l_in21,1,222,NaN,bird,boat,270,0222_rot_dnn_270_boat_20_n04273569_29866.png
mlp_mixer_l_in21,1,223,NaN,oven,clock,90,0223_rot_dnn_90_clock_20_n02708093_3623.png
mlp_mixer_l_in21,1,224,NaN,dog,bear,180,0224_rot_dnn_180_bear_20_n02132136_7468.png
mlp_mixer_l_in21,1,225,NaN,dog,cat,0,0225_rot_dnn_0_cat_20_n02123159_2137.png
mlp_mixer_l_in21,1,226,NaN,car,bottle,90,0226_rot_dnn_90_bottle_20_n03937543_5257.png
mlp_mixer_l_in21,1,227,NaN,dog,cat,0,0227_rot_dnn_0_cat_20_n02123394_937.png
mlp_mixer_l_in21,1,228,NaN,chair,boat,0,0228_rot_dnn_0_boat_20_n03662601_11764.png
mlp_mixer_l_in21,1,229,NaN,dog,bear,0,0229_rot_dnn_0_bear_20_n02132136_10412.png
mlp_mixer_l_in21,1,230,NaN,elephant,clock,270,0230_rot_dnn_270_clock_20_n03196217_3600.png
mlp_mixer_l_in21,1,231,NaN,car,dog,270,0231_rot_dnn_270_dog_20_n02102177_255.png
mlp_mixer_l_in21,1,232,NaN,truck,bird,270,0232_rot_dnn_270_bird_20_n01614925_1860.png
mlp_mixer_l_in21,1,233,NaN,elephant,airplane,180,0233_rot_dnn_180_airplane_20_n02690373_1021.png
mlp_mixer_l_in21,1,234,NaN,car,chair,180,0234_rot_dnn_180_chair_20_n03376595_9079.png
mlp_mixer_l_in21,1,235,NaN,oven,chair,90,0235_rot_dnn_90_chair_20_n02791124_5199.png
mlp_mixer_l_in21,1,236,NaN,elephant,keyboard,90,0236_rot_dnn_90_keyboard_20_n03085013_24294.png
mlp_mixer_l_in21,1,237,NaN,dog,cat,0,0237_rot_dnn_0_cat_20_n02123597_13286.png
mlp_mixer_l_in21,1,238,NaN,oven,bird,180,0238_rot_dnn_180_bird_20_n01560419_17392.png
mlp_mixer_l_in21,1,239,NaN,car,oven,270,0239_rot_dnn_270_oven_20_n04111531_6934.png
mlp_mixer_l_in21,1,240,NaN,oven,clock,90,0240_rot_dnn_90_clock_20_n03196217_6707.png
mlp_mixer_l_in21,1,241,NaN,oven,knife,180,0241_rot_dnn_180_knife_20_n03041632_15174.png
mlp_mixer_l_in21,1,242,NaN,clock,oven,180,0242_rot_dnn_180_oven_20_n04111531_13644.png
mlp_mixer_l_in21,1,243,NaN,dog,elephant,0,0243_rot_dnn_0_elephant_20_n02504458_3458.png
mlp_mixer_l_in21,1,244,NaN,dog,clock,90,0244_rot_dnn_90_clock_20_n04548280_18914.png
mlp_mixer_l_in21,1,245,NaN,dog,dog,180,0245_rot_dnn_180_dog_20_n02107908_2754.png
mlp_mixer_l_in21,1,246,NaN,car,airplane,0,0246_rot_dnn_0_airplane_20_n02690373_1306.png
mlp_mixer_l_in21,1,247,NaN,bird,chair,90,0247_rot_dnn_90_chair_20_n03376595_10266.png
mlp_mixer_l_in21,1,248,NaN,car,keyboard,270,0248_rot_dnn_270_keyboard_20_n04505470_1416.png
mlp_mixer_l_in21,1,249,NaN,car,clock,180,0249_rot_dnn_180_clock_20_n04548280_4686.png
mlp_mixer_l_in21,1,250,NaN,bird,truck,270,0250_rot_dnn_270_truck_20_n04467665_69882.png
mlp_mixer_l_in21,1,251,NaN,oven,bottle,270,0251_rot_dnn_270_bottle_20_n04591713_2123.png
mlp_mixer_l_in21,1,252,NaN,clock,oven,90,0252_rot_dnn_90_oven_20_n04111531_6933.png
mlp_mixer_l_in21,1,253,NaN,elephant,car,270,0253_rot_dnn_270_car_20_n03100240_8898.png
mlp_mixer_l_in21,1,254,NaN,dog,elephant,180,0254_rot_dnn_180_elephant_20_n02504458_5277.png
mlp_mixer_l_in21,1,255,NaN,clock,truck,270,0255_rot_dnn_270_truck_20_n03417042_9967.png
mlp_mixer_l_in21,1,256,NaN,dog,bear,0,0256_rot_dnn_0_bear_20_n02134418_1017.png
mlp_mixer_l_in21,1,257,NaN,bird,airplane,90,0257_rot_dnn_90_airplane_20_n02690373_1909.png
mlp_mixer_l_in21,1,258,NaN,chair,airplane,0,0258_rot_dnn_0_airplane_20_n02690373_6753.png
mlp_mixer_l_in21,1,259,NaN,car,airplane,0,0259_rot_dnn_0_airplane_20_n02690373_1972.png
mlp_mixer_l_in21,1,260,NaN,bird,oven,90,0260_rot_dnn_90_oven_20_n04111531_9915.png
mlp_mixer_l_in21,1,261,NaN,dog,elephant,270,0261_rot_dnn_270_elephant_20_n02504458_485.png
mlp_mixer_l_in21,1,262,NaN,bicycle,elephant,180,0262_rot_dnn_180_elephant_20_n02504013_2431.png
mlp_mixer_l_in21,1,263,NaN,dog,clock,180,0263_rot_dnn_180_clock_20_n02708093_1038.png
mlp_mixer_l_in21,1,264,NaN,dog,cat,270,0264_rot_dnn_270_cat_20_n02123597_5927.png
mlp_mixer_l_in21,1,265,NaN,bird,bicycle,90,0265_rot_dnn_90_bicycle_20_n03792782_3202.png
mlp_mixer_l_in21,1,266,NaN,bird,car,270,0266_rot_dnn_270_car_20_n02814533_45480.png
mlp_mixer_l_in21,1,267,NaN,oven,truck,90,0267_rot_dnn_90_truck_20_n03796401_4571.png
mlp_mixer_l_in21,1,268,NaN,chair,oven,90,0268_rot_dnn_90_oven_20_n04111531_21011.png
mlp_mixer_l_in21,1,269,NaN,bird,airplane,0,0269_rot_dnn_0_airplane_20_n02690373_4310.png
mlp_mixer_l_in21,1,270,NaN,car,oven,0,0270_rot_dnn_0_oven_20_n04111531_7134.png
mlp_mixer_l_in21,1,271,NaN,dog,dog,270,0271_rot_dnn_270_dog_20_n02105251_1092.png
mlp_mixer_l_in21,1,272,NaN,bottle,knife,180,0272_rot_dnn_180_knife_20_n03041632_34505.png
mlp_mixer_l_in21,1,273,NaN,elephant,keyboard,90,0273_rot_dnn_90_keyboard_20_n04505470_4520.png
mlp_mixer_l_in21,1,274,NaN,bird,boat,180,0274_rot_dnn_180_boat_20_n03344393_1519.png
mlp_mixer_l_in21,1,275,NaN,oven,chair,270,0275_rot_dnn_270_chair_20_n03376595_9535.png
mlp_mixer_l_in21,1,276,NaN,dog,cat,270,0276_rot_dnn_270_cat_20_n02125311_1326.png
mlp_mixer_l_in21,1,277,NaN,dog,cat,90,0277_rot_dnn_90_cat_20_n02123394_2948.png
mlp_mixer_l_in21,1,278,NaN,bird,oven,270,0278_rot_dnn_270_oven_20_n04111531_5429.png
mlp_mixer_l_in21,1,279,NaN,dog,elephant,0,0279_rot_dnn_0_elephant_20_n02504013_6645.png
mlp_mixer_l_in21,1,280,NaN,oven,keyboard,90,0280_rot_dnn_90_keyboard_20_n04505470_4159.png
mlp_mixer_l_in21,1,281,NaN,oven,bottle,90,0281_rot_dnn_90_bottle_20_n02823428_6252.png
mlp_mixer_l_in21,1,282,NaN,car,airplane,180,0282_rot_dnn_180_airplane_20_n02690373_15097.png
mlp_mixer_l_in21,1,283,NaN,bird,cat,0,0283_rot_dnn_0_cat_20_n02123159_3420.png
mlp_mixer_l_in21,1,284,NaN,dog,cat,0,0284_rot_dnn_0_cat_20_n02124075_7835.png
mlp_mixer_l_in21,1,285,NaN,dog,cat,90,0285_rot_dnn_90_cat_20_n02123045_6696.png
mlp_mixer_l_in21,1,286,NaN,bird,boat,180,0286_rot_dnn_180_boat_20_n02951358_34766.png
mlp_mixer_l_in21,1,287,NaN,truck,bird,0,0287_rot_dnn_0_bird_20_n01855672_8191.png
mlp_mixer_l_in21,1,288,NaN,bird,truck,180,0288_rot_dnn_180_truck_20_n03796401_1150.png
mlp_mixer_l_in21,1,289,NaN,chair,bicycle,270,0289_rot_dnn_270_bicycle_20_n03792782_9782.png
mlp_mixer_l_in21,1,290,NaN,clock,boat,270,0290_rot_dnn_270_boat_20_n03662601_12969.png
mlp_mixer_l_in21,1,291,NaN,chair,bottle,180,0291_rot_dnn_180_bottle_20_n02823428_4530.png
mlp_mixer_l_in21,1,292,NaN,bird,chair,0,0292_rot_dnn_0_chair_20_n02791124_2898.png
mlp_mixer_l_in21,1,293,NaN,dog,cat,270,0293_rot_dnn_270_cat_20_n02123394_686.png
mlp_mixer_l_in21,1,294,NaN,dog,dog,180,0294_rot_dnn_180_dog_20_n02100735_4364.png
mlp_mixer_l_in21,1,295,NaN,dog,dog,0,0295_rot_dnn_0_dog_20_n02102177_7968.png
mlp_mixer_l_in21,1,296,NaN,clock,knife,270,0296_rot_dnn_270_knife_20_n03041632_15099.png
mlp_mixer_l_in21,1,297,NaN,oven,oven,180,0297_rot_dnn_180_oven_20_n04111531_2937.png
mlp_mixer_l_in21,1,298,NaN,dog,cat,0,0298_rot_dnn_0_cat_20_n02123394_3695.png
mlp_mixer_l_in21,1,299,NaN,bottle,bear,180,0299_rot_dnn_180_bear_20_n02134084_3696.png
mlp_mixer_l_in21,1,300,NaN,car,oven,270,0300_rot_dnn_270_oven_20_n04111531_4671.png
mlp_mixer_l_in21,1,301,NaN,car,bear,180,0301_rot_dnn_180_bear_20_n02133161_2741.png
mlp_mixer_l_in21,1,302,NaN,bird,boat,90,0302_rot_dnn_90_boat_20_n03662601_3893.png
mlp_mixer_l_in21,1,303,NaN,bird,boat,90,0303_rot_dnn_90_boat_20_n03344393_2790.png
mlp_mixer_l_in21,1,304,NaN,car,keyboard,180,0304_rot_dnn_180_keyboard_20_n03085013_3920.png
mlp_mixer_l_in21,1,305,NaN,car,chair,90,0305_rot_dnn_90_chair_20_n04099969_1962.png
mlp_mixer_l_in21,1,306,NaN,bicycle,knife,0,0306_rot_dnn_0_knife_20_n03041632_13846.png
mlp_mixer_l_in21,1,307,NaN,bird,boat,0,0307_rot_dnn_0_boat_20_n02951358_30117.png
mlp_mixer_l_in21,1,308,NaN,bird,elephant,270,0308_rot_dnn_270_elephant_20_n02504458_9922.png
mlp_mixer_l_in21,1,309,NaN,bird,boat,180,0309_rot_dnn_180_boat_20_n03344393_5609.png
mlp_mixer_l_in21,1,310,NaN,bird,chair,0,0310_rot_dnn_0_chair_20_n02791124_3180.png
mlp_mixer_l_in21,1,311,NaN,bear,boat,90,0311_rot_dnn_90_boat_20_n02951358_12532.png
mlp_mixer_l_in21,1,312,NaN,dog,cat,180,0312_rot_dnn_180_cat_20_n02123597_1901.png
mlp_mixer_l_in21,1,313,NaN,chair,elephant,270,0313_rot_dnn_270_elephant_20_n02504013_5173.png
mlp_mixer_l_in21,1,314,NaN,bird,car,180,0314_rot_dnn_180_car_20_n04285008_4834.png
mlp_mixer_l_in21,1,315,NaN,bird,truck,270,0315_rot_dnn_270_truck_20_n03417042_28584.png
mlp_mixer_l_in21,1,316,NaN,dog,dog,180,0316_rot_dnn_180_dog_20_n02093428_11151.png
mlp_mixer_l_in21,1,317,NaN,car,bicycle,90,0317_rot_dnn_90_bicycle_20_n03792782_1475.png
mlp_mixer_l_in21,1,318,NaN,car,knife,0,0318_rot_dnn_0_knife_20_n03041632_8666.png
mlp_mixer_l_in21,1,319,NaN,bird,clock,0,0319_rot_dnn_0_clock_20_n04548280_253.png
mlp_mixer_l_in21,1,320,NaN,elephant,airplane,180,0320_rot_dnn_180_airplane_20_n02690373_9441.png
mlp_mixer_l_in21,1,321,NaN,bird,airplane,270,0321_rot_dnn_270_airplane_20_n02690373_1946.png
mlp_mixer_l_in21,1,322,NaN,elephant,car,90,0322_rot_dnn_90_car_20_n03100240_5044.png
mlp_mixer_l_in21,1,323,NaN,dog,dog,270,0323_rot_dnn_270_dog_20_n02111500_6559.png
mlp_mixer_l_in21,1,324,NaN,dog,dog,270,0324_rot_dnn_270_dog_20_n02096051_1852.png
mlp_mixer_l_in21,1,325,NaN,car,bear,270,0325_rot_dnn_270_bear_20_n02133161_5020.png
mlp_mixer_l_in21,1,326,NaN,car,chair,90,0326_rot_dnn_90_chair_20_n02791124_2034.png
mlp_mixer_l_in21,1,327,NaN,bottle,clock,180,0327_rot_dnn_180_clock_20_n03196217_6526.png
mlp_mixer_l_in21,1,328,NaN,bird,oven,180,0328_rot_dnn_180_oven_20_n04111531_9779.png
mlp_mixer_l_in21,1,329,NaN,bird,boat,0,0329_rot_dnn_0_boat_20_n03662601_28640.png
mlp_mixer_l_in21,1,330,NaN,elephant,knife,90,0330_rot_dnn_90_knife_20_n03041632_31301.png
mlp_mixer_l_in21,1,331,NaN,clock,keyboard,90,0331_rot_dnn_90_keyboard_20_n03085013_9209.png
mlp_mixer_l_in21,1,332,NaN,car,elephant,90,0332_rot_dnn_90_elephant_20_n02504458_113.png
mlp_mixer_l_in21,1,333,NaN,bird,bicycle,180,0333_rot_dnn_180_bicycle_20_n03792782_6058.png
mlp_mixer_l_in21,1,334,NaN,chair,keyboard,0,0334_rot_dnn_0_keyboard_20_n04505470_4651.png
mlp_mixer_l_in21,1,335,NaN,oven,keyboard,180,0335_rot_dnn_180_keyboard_20_n03085013_7009.png
mlp_mixer_l_in21,1,336,NaN,chair,truck,270,0336_rot_dnn_270_truck_20_n04467665_44390.png
mlp_mixer_l_in21,1,337,NaN,bird,boat,90,0337_rot_dnn_90_boat_20_n04273569_17340.png
mlp_mixer_l_in21,1,338,NaN,dog,elephant,0,0338_rot_dnn_0_elephant_20_n02504013_1333.png
mlp_mixer_l_in21,1,339,NaN,bird,knife,270,0339_rot_dnn_270_knife_20_n03041632_50034.png
mlp_mixer_l_in21,1,340,NaN,dog,clock,90,0340_rot_dnn_90_clock_20_n02708093_2740.png
mlp_mixer_l_in21,1,341,NaN,dog,bear,0,0341_rot_dnn_0_bear_20_n02132136_13975.png
mlp_mixer_l_in21,1,342,NaN,dog,elephant,90,0342_rot_dnn_90_elephant_20_n02504013_256.png
mlp_mixer_l_in21,1,343,NaN,bird,boat,90,0343_rot_dnn_90_boat_20_n03344393_6588.png
mlp_mixer_l_in21,1,344,NaN,bird,knife,270,0344_rot_dnn_270_knife_20_n03041632_7173.png
mlp_mixer_l_in21,1,345,NaN,bird,elephant,180,0345_rot_dnn_180_elephant_20_n02504458_1041.png
mlp_mixer_l_in21,1,346,NaN,bird,chair,180,0346_rot_dnn_180_chair_20_n04099969_8021.png
mlp_mixer_l_in21,1,347,NaN,clock,truck,0,0347_rot_dnn_0_truck_20_n03796401_1791.png
mlp_mixer_l_in21,1,348,NaN,car,keyboard,90,0348_rot_dnn_90_keyboard_20_n04505470_5007.png
mlp_mixer_l_in21,1,349,NaN,clock,truck,180,0349_rot_dnn_180_truck_20_n03417042_29384.png
mlp_mixer_l_in21,1,350,NaN,car,bird,90,0350_rot_dnn_90_bird_20_n01534433_1271.png
mlp_mixer_l_in21,1,351,NaN,dog,dog,270,0351_rot_dnn_270_dog_20_n02113624_393.png
mlp_mixer_l_in21,1,352,NaN,car,cat,90,0352_rot_dnn_90_cat_20_n02123159_5461.png
mlp_mixer_l_in21,1,353,NaN,chair,knife,270,0353_rot_dnn_270_knife_20_n03041632_9759.png
mlp_mixer_l_in21,1,354,NaN,bird,chair,90,0354_rot_dnn_90_chair_20_n04429376_1754.png
mlp_mixer_l_in21,1,355,NaN,bird,oven,90,0355_rot_dnn_90_oven_20_n04111531_1818.png
mlp_mixer_l_in21,1,356,NaN,chair,clock,0,0356_rot_dnn_0_clock_20_n04548280_5798.png
mlp_mixer_l_in21,1,357,NaN,bird,oven,90,0357_rot_dnn_90_oven_20_n04111531_3099.png
mlp_mixer_l_in21,1,358,NaN,bottle,bottle,270,0358_rot_dnn_270_bottle_20_n04557648_581.png
mlp_mixer_l_in21,1,359,NaN,car,bird,0,0359_rot_dnn_0_bird_20_n01531178_3183.png
mlp_mixer_l_in21,1,360,NaN,bottle,airplane,90,0360_rot_dnn_90_airplane_20_n02690373_8872.png
mlp_mixer_l_in21,1,361,NaN,dog,cat,0,0361_rot_dnn_0_cat_20_n02123394_5301.png
mlp_mixer_l_in21,1,362,NaN,dog,bicycle,270,0362_rot_dnn_270_bicycle_20_n03792782_12844.png
mlp_mixer_l_in21,1,363,NaN,dog,bear,90,0363_rot_dnn_90_bear_20_n02132136_2691.png
mlp_mixer_l_in21,1,364,NaN,car,car,0,0364_rot_dnn_0_car_20_n02814533_27327.png
mlp_mixer_l_in21,1,365,NaN,chair,bird,0,0365_rot_dnn_0_bird_20_n02027492_7653.png
mlp_mixer_l_in21,1,366,NaN,clock,bear,0,0366_rot_dnn_0_bear_20_n02133161_62.png
mlp_mixer_l_in21,1,367,NaN,bird,bottle,0,0367_rot_dnn_0_bottle_20_n04560804_9710.png
mlp_mixer_l_in21,1,368,NaN,bird,clock,180,0368_rot_dnn_180_clock_20_n04548280_15154.png
mlp_mixer_l_in21,1,369,NaN,truck,oven,180,0369_rot_dnn_180_oven_20_n04111531_114.png
mlp_mixer_l_in21,1,370,NaN,dog,cat,180,0370_rot_dnn_180_cat_20_n02125311_24813.png
mlp_mixer_l_in21,1,371,NaN,dog,airplane,90,0371_rot_dnn_90_airplane_20_n02690373_7647.png
mlp_mixer_l_in21,1,372,NaN,car,bottle,0,0372_rot_dnn_0_bottle_20_n03983396_9823.png
mlp_mixer_l_in21,1,373,NaN,truck,bear,0,0373_rot_dnn_0_bear_20_n02134418_2398.png
mlp_mixer_l_in21,1,374,NaN,dog,keyboard,90,0374_rot_dnn_90_keyboard_20_n04505470_4584.png
mlp_mixer_l_in21,1,375,NaN,elephant,keyboard,0,0375_rot_dnn_0_keyboard_20_n04505470_10055.png
mlp_mixer_l_in21,1,376,NaN,bear,boat,270,0376_rot_dnn_270_boat_20_n04273569_10980.png
mlp_mixer_l_in21,1,377,NaN,oven,car,180,0377_rot_dnn_180_car_20_n03100240_16210.png
mlp_mixer_l_in21,1,378,NaN,dog,keyboard,0,0378_rot_dnn_0_keyboard_20_n04505470_1067.png
mlp_mixer_l_in21,1,379,NaN,dog,elephant,0,0379_rot_dnn_0_elephant_20_n02504458_7867.png
mlp_mixer_l_in21,1,380,NaN,bottle,keyboard,180,0380_rot_dnn_180_keyboard_20_n04505470_807.png
mlp_mixer_l_in21,1,381,NaN,bird,bicycle,270,0381_rot_dnn_270_bicycle_20_n02835271_24104.png
mlp_mixer_l_in21,1,382,NaN,elephant,bottle,0,0382_rot_dnn_0_bottle_20_n03937543_6698.png
mlp_mixer_l_in21,1,383,NaN,car,oven,0,0383_rot_dnn_0_oven_20_n04111531_10403.png
mlp_mixer_l_in21,1,384,NaN,clock,truck,0,0384_rot_dnn_0_truck_20_n03796401_8463.png
mlp_mixer_l_in21,1,385,NaN,bird,truck,0,0385_rot_dnn_0_truck_20_n03796401_8176.png
mlp_mixer_l_in21,1,386,NaN,elephant,bottle,90,0386_rot_dnn_90_bottle_20_n03937543_984.png
mlp_mixer_l_in21,1,387,NaN,car,bicycle,90,0387_rot_dnn_90_bicycle_20_n02835271_11697.png
mlp_mixer_l_in21,1,388,NaN,bird,keyboard,270,0388_rot_dnn_270_keyboard_20_n03085013_22417.png
mlp_mixer_l_in21,1,389,NaN,car,car,270,0389_rot_dnn_270_car_20_n03100240_7602.png
mlp_mixer_l_in21,1,390,NaN,car,bird,90,0390_rot_dnn_90_bird_20_n01534433_14389.png
mlp_mixer_l_in21,1,391,NaN,dog,bear,0,0391_rot_dnn_0_bear_20_n02134084_2598.png
mlp_mixer_l_in21,1,392,NaN,oven,bird,180,0392_rot_dnn_180_bird_20_n01560419_19599.png
mlp_mixer_l_in21,1,393,NaN,bird,bicycle,90,0393_rot_dnn_90_bicycle_20_n02835271_8747.png
mlp_mixer_l_in21,1,394,NaN,car,knife,180,0394_rot_dnn_180_knife_20_n03041632_30821.png
mlp_mixer_l_in21,1,395,NaN,clock,chair,270,0395_rot_dnn_270_chair_20_n03376595_209.png
mlp_mixer_l_in21,1,396,NaN,bear,boat,180,0396_rot_dnn_180_boat_20_n04273569_29113.png
mlp_mixer_l_in21,1,397,NaN,car,bird,270,0397_rot_dnn_270_bird_20_n02006656_6435.png
mlp_mixer_l_in21,1,398,NaN,bird,airplane,90,0398_rot_dnn_90_airplane_20_n02690373_3492.png
mlp_mixer_l_in21,1,399,NaN,bottle,oven,270,0399_rot_dnn_270_oven_20_n04111531_9380.png
mlp_mixer_l_in21,1,400,NaN,oven,keyboard,270,0400_rot_dnn_270_keyboard_20_n04505470_510.png
mlp_mixer_l_in21,1,401,NaN,car,bird,180,0401_rot_dnn_180_bird_20_n02027492_20576.png
mlp_mixer_l_in21,1,402,NaN,bear,bird,90,0402_rot_dnn_90_bird_20_n01855032_1920.png
mlp_mixer_l_in21,1,403,NaN,car,boat,180,0403_rot_dnn_180_boat_20_n04273569_15761.png
mlp_mixer_l_in21,1,404,NaN,clock,oven,180,0404_rot_dnn_180_oven_20_n04111531_10667.png
mlp_mixer_l_in21,1,405,NaN,clock,knife,270,0405_rot_dnn_270_knife_20_n03041632_36215.png
mlp_mixer_l_in21,1,406,NaN,bird,bicycle,180,0406_rot_dnn_180_bicycle_20_n02835271_2625.png
mlp_mixer_l_in21,1,407,NaN,boat,bird,270,0407_rot_dnn_270_bird_20_n02028035_20411.png
mlp_mixer_l_in21,1,408,NaN,car,knife,0,0408_rot_dnn_0_knife_20_n03041632_25656.png
mlp_mixer_l_in21,1,409,NaN,car,oven,270,0409_rot_dnn_270_oven_20_n04111531_4332.png
mlp_mixer_l_in21,1,410,NaN,chair,keyboard,180,0410_rot_dnn_180_keyboard_20_n04505470_3553.png
mlp_mixer_l_in21,1,411,NaN,bird,bicycle,180,0411_rot_dnn_180_bicycle_20_n02835271_18706.png
mlp_mixer_l_in21,1,412,NaN,bird,truck,270,0412_rot_dnn_270_truck_20_n03417042_10744.png
mlp_mixer_l_in21,1,413,NaN,oven,clock,0,0413_rot_dnn_0_clock_20_n03196217_11724.png
mlp_mixer_l_in21,1,414,NaN,bird,bicycle,270,0414_rot_dnn_270_bicycle_20_n02835271_14123.png
mlp_mixer_l_in21,1,415,NaN,car,bicycle,270,0415_rot_dnn_270_bicycle_20_n02835271_7900.png
mlp_mixer_l_in21,1,416,NaN,oven,truck,270,0416_rot_dnn_270_truck_20_n03417042_2153.png
mlp_mixer_l_in21,1,417,NaN,bird,bicycle,270,0417_rot_dnn_270_bicycle_20_n03792782_10129.png
mlp_mixer_l_in21,1,418,NaN,dog,bird,180,0418_rot_dnn_180_bird_20_n01514859_18430.png
mlp_mixer_l_in21,1,419,NaN,elephant,chair,0,0419_rot_dnn_0_chair_20_n04099969_5010.png
mlp_mixer_l_in21,1,420,NaN,bird,truck,0,0420_rot_dnn_0_truck_20_n03796401_588.png
mlp_mixer_l_in21,1,421,NaN,oven,car,0,0421_rot_dnn_0_car_20_n02814533_486.png
mlp_mixer_l_in21,1,422,NaN,boat,elephant,90,0422_rot_dnn_90_elephant_20_n02504013_3540.png
mlp_mixer_l_in21,1,423,NaN,bird,car,180,0423_rot_dnn_180_car_20_n02814533_55715.png
mlp_mixer_l_in21,1,424,NaN,car,bottle,180,0424_rot_dnn_180_bottle_20_n03983396_10896.png
mlp_mixer_l_in21,1,425,NaN,car,bottle,90,0425_rot_dnn_90_bottle_20_n04557648_15053.png
mlp_mixer_l_in21,1,426,NaN,dog,car,0,0426_rot_dnn_0_car_20_n04285008_8281.png
mlp_mixer_l_in21,1,427,NaN,car,car,270,0427_rot_dnn_270_car_20_n02814533_38596.png
mlp_mixer_l_in21,1,428,NaN,bird,elephant,270,0428_rot_dnn_270_elephant_20_n02504013_15219.png
mlp_mixer_l_in21,1,429,NaN,dog,elephant,180,0429_rot_dnn_180_elephant_20_n02504013_828.png
mlp_mixer_l_in21,1,430,NaN,car,oven,180,0430_rot_dnn_180_oven_20_n04111531_1439.png
mlp_mixer_l_in21,1,431,NaN,bird,bottle,90,0431_rot_dnn_90_bottle_20_n03983396_3315.png
mlp_mixer_l_in21,1,432,NaN,bottle,airplane,90,0432_rot_dnn_90_airplane_20_n02690373_4024.png
mlp_mixer_l_in21,1,433,NaN,bicycle,elephant,270,0433_rot_dnn_270_elephant_20_n02504013_10301.png
mlp_mixer_l_in21,1,434,NaN,chair,oven,180,0434_rot_dnn_180_oven_20_n04111531_7067.png
mlp_mixer_l_in21,1,435,NaN,oven,knife,90,0435_rot_dnn_90_knife_20_n03041632_36834.png
mlp_mixer_l_in21,1,436,NaN,oven,car,90,0436_rot_dnn_90_car_20_n02814533_18148.png
mlp_mixer_l_in21,1,437,NaN,bear,cat,90,0437_rot_dnn_90_cat_20_n02125311_41284.png
mlp_mixer_l_in21,1,438,NaN,bird,bicycle,0,0438_rot_dnn_0_bicycle_20_n02835271_18188.png
mlp_mixer_l_in21,1,439,NaN,elephant,bottle,0,0439_rot_dnn_0_bottle_20_n04591713_2903.png
mlp_mixer_l_in21,1,440,NaN,car,knife,0,0440_rot_dnn_0_knife_20_n03041632_54191.png
mlp_mixer_l_in21,1,441,NaN,car,truck,180,0441_rot_dnn_180_truck_20_n03417042_8867.png
mlp_mixer_l_in21,1,442,NaN,bird,oven,270,0442_rot_dnn_270_oven_20_n04111531_8421.png
mlp_mixer_l_in21,1,443,NaN,bicycle,elephant,270,0443_rot_dnn_270_elephant_20_n02504013_4062.png
mlp_mixer_l_in21,1,444,NaN,elephant,keyboard,270,0444_rot_dnn_270_keyboard_20_n04505470_1649.png
mlp_mixer_l_in21,1,445,NaN,bird,boat,180,0445_rot_dnn_180_boat_20_n03344393_7967.png
mlp_mixer_l_in21,1,446,NaN,bird,bicycle,0,0446_rot_dnn_0_bicycle_20_n02835271_10265.png
mlp_mixer_l_in21,1,447,NaN,car,bicycle,180,0447_rot_dnn_180_bicycle_20_n02835271_6742.png
mlp_mixer_l_in21,1,448,NaN,dog,cat,180,0448_rot_dnn_180_cat_20_n02123045_3168.png
mlp_mixer_l_in21,1,449,NaN,car,car,180,0449_rot_dnn_180_car_20_n03100240_8489.png
mlp_mixer_l_in21,1,450,NaN,car,oven,270,0450_rot_dnn_270_oven_20_n04111531_1826.png
mlp_mixer_l_in21,1,451,NaN,dog,dog,180,0451_rot_dnn_180_dog_20_n02104365_1592.png
mlp_mixer_l_in21,1,452,NaN,bear,boat,90,0452_rot_dnn_90_boat_20_n02951358_4343.png
mlp_mixer_l_in21,1,453,NaN,car,bottle,0,0453_rot_dnn_0_bottle_20_n02823428_4282.png
mlp_mixer_l_in21,1,454,NaN,car,bird,0,0454_rot_dnn_0_bird_20_n01817953_2043.png
mlp_mixer_l_in21,1,455,NaN,dog,dog,0,0455_rot_dnn_0_dog_20_n02110958_14369.png
mlp_mixer_l_in21,1,456,NaN,dog,dog,270,0456_rot_dnn_270_dog_20_n02108000_1044.png
mlp_mixer_l_in21,1,457,NaN,bird,dog,270,0457_rot_dnn_270_dog_20_n02087394_1428.png
mlp_mixer_l_in21,1,458,NaN,bottle,airplane,90,0458_rot_dnn_90_airplane_20_n02690373_2856.png
mlp_mixer_l_in21,1,459,NaN,dog,chair,0,0459_rot_dnn_0_chair_20_n03376595_19165.png
mlp_mixer_l_in21,1,460,NaN,car,chair,270,0460_rot_dnn_270_chair_20_n04099969_42125.png
mlp_mixer_l_in21,1,461,NaN,elephant,bottle,270,0461_rot_dnn_270_bottle_20_n02823428_12656.png
mlp_mixer_l_in21,1,462,NaN,bird,bicycle,180,0462_rot_dnn_180_bicycle_20_n02835271_5861.png
mlp_mixer_l_in21,1,463,NaN,bird,airplane,90,0463_rot_dnn_90_airplane_20_n02690373_19345.png
mlp_mixer_l_in21,1,464,NaN,car,clock,90,0464_rot_dnn_90_clock_20_n02708093_8069.png
mlp_mixer_l_in21,1,465,NaN,oven,chair,270,0465_rot_dnn_270_chair_20_n04099969_16.png
mlp_mixer_l_in21,1,466,NaN,dog,dog,270,0466_rot_dnn_270_dog_20_n02104365_1756.png
mlp_mixer_l_in21,1,467,NaN,car,bird,270,0467_rot_dnn_270_bird_20_n01819313_17231.png
mlp_mixer_l_in21,1,468,NaN,oven,car,90,0468_rot_dnn_90_car_20_n02814533_34149.png
mlp_mixer_l_in21,1,469,NaN,bottle,knife,0,0469_rot_dnn_0_knife_20_n03041632_26053.png
mlp_mixer_l_in21,1,470,NaN,car,oven,0,0470_rot_dnn_0_oven_20_n04111531_11287.png
mlp_mixer_l_in21,1,471,NaN,bottle,bottle,0,0471_rot_dnn_0_bottle_20_n03937543_11959.png
mlp_mixer_l_in21,1,472,NaN,dog,airplane,270,0472_rot_dnn_270_airplane_20_n02690373_1348.png
mlp_mixer_l_in21,1,473,NaN,dog,bear,0,0473_rot_dnn_0_bear_20_n02132136_5175.png
mlp_mixer_l_in21,1,474,NaN,dog,keyboard,270,0474_rot_dnn_270_keyboard_20_n03085013_7382.png
mlp_mixer_l_in21,1,475,NaN,dog,dog,270,0475_rot_dnn_270_dog_20_n02109961_4280.png
mlp_mixer_l_in21,1,476,NaN,elephant,truck,90,0476_rot_dnn_90_truck_20_n03417042_1344.png
mlp_mixer_l_in21,1,477,NaN,dog,elephant,0,0477_rot_dnn_0_elephant_20_n02504013_9299.png
mlp_mixer_l_in21,1,478,NaN,truck,bear,0,0478_rot_dnn_0_bear_20_n02134418_5527.png
mlp_mixer_l_in21,1,479,NaN,car,keyboard,270,0479_rot_dnn_270_keyboard_20_n03085013_23109.png
mlp_mixer_l_in21,1,480,NaN,dog,bear,180,0480_rot_dnn_180_bear_20_n02133161_4393.png
mlp_mixer_l_in21,1,481,NaN,car,oven,0,0481_rot_dnn_0_oven_20_n04111531_73.png
mlp_mixer_l_in21,1,482,NaN,bird,keyboard,0,0482_rot_dnn_0_keyboard_20_n03085013_7613.png
mlp_mixer_l_in21,1,483,NaN,bear,oven,180,0483_rot_dnn_180_oven_20_n04111531_2795.png
mlp_mixer_l_in21,1,484,NaN,bird,oven,0,0484_rot_dnn_0_oven_20_n04111531_22517.png
mlp_mixer_l_in21,1,485,NaN,bear,elephant,90,0485_rot_dnn_90_elephant_20_n02504458_2613.png
mlp_mixer_l_in21,1,486,NaN,car,oven,180,0486_rot_dnn_180_oven_20_n04111531_9176.png
mlp_mixer_l_in21,1,487,NaN,dog,bottle,180,0487_rot_dnn_180_bottle_20_n04557648_5790.png
mlp_mixer_l_in21,1,488,NaN,oven,truck,90,0488_rot_dnn_90_truck_20_n04467665_9812.png
mlp_mixer_l_in21,1,489,NaN,oven,bottle,0,0489_rot_dnn_0_bottle_20_n04591713_7476.png
mlp_mixer_l_in21,1,490,NaN,bird,elephant,90,0490_rot_dnn_90_elephant_20_n02504458_1567.png
mlp_mixer_l_in21,1,491,NaN,car,clock,90,0491_rot_dnn_90_clock_20_n04548280_6865.png
mlp_mixer_l_in21,1,492,NaN,chair,bottle,180,0492_rot_dnn_180_bottle_20_n02823428_3.png
mlp_mixer_l_in21,1,493,NaN,oven,boat,90,0493_rot_dnn_90_boat_20_n04273569_8951.png
mlp_mixer_l_in21,1,494,NaN,knife,knife,180,0494_rot_dnn_180_knife_20_n03041632_53874.png
mlp_mixer_l_in21,1,495,NaN,elephant,clock,0,0495_rot_dnn_0_clock_20_n04548280_6126.png
mlp_mixer_l_in21,1,496,NaN,dog,cat,180,0496_rot_dnn_180_cat_20_n02123597_6186.png
mlp_mixer_l_in21,1,497,NaN,dog,cat,270,0497_rot_dnn_270_cat_20_n02124075_14662.png
mlp_mixer_l_in21,1,498,NaN,oven,car,90,0498_rot_dnn_90_car_20_n04285008_8677.png
mlp_mixer_l_in21,1,499,NaN,car,bird,90,0499_rot_dnn_90_bird_20_n01820546_2568.png
mlp_mixer_l_in21,1,500,NaN,car,clock,90,0500_rot_dnn_90_clock_20_n04548280_7354.png
mlp_mixer_l_in21,1,501,NaN,bird,bicycle,270,0501_rot_dnn_270_bicycle_20_n03792782_586.png
mlp_mixer_l_in21,1,502,NaN,oven,bear,0,0502_rot_dnn_0_bear_20_n02134084_572.png
mlp_mixer_l_in21,1,503,NaN,bird,bicycle,270,0503_rot_dnn_270_bicycle_20_n03792782_3388.png
mlp_mixer_l_in21,1,504,NaN,bird,bicycle,270,0504_rot_dnn_270_bicycle_20_n03792782_28970.png
mlp_mixer_l_in21,1,505,NaN,oven,bottle,270,0505_rot_dnn_270_bottle_20_n04560804_11386.png
mlp_mixer_l_in21,1,506,NaN,bird,chair,180,0506_rot_dnn_180_chair_20_n03376595_6799.png
mlp_mixer_l_in21,1,507,NaN,dog,dog,270,0507_rot_dnn_270_dog_20_n02094258_6398.png
mlp_mixer_l_in21,1,508,NaN,oven,bird,0,0508_rot_dnn_0_bird_20_n01592084_2639.png
mlp_mixer_l_in21,1,509,NaN,car,bird,180,0509_rot_dnn_180_bird_20_n02017213_4781.png
mlp_mixer_l_in21,1,510,NaN,bird,airplane,270,0510_rot_dnn_270_airplane_20_n02690373_3818.png
mlp_mixer_l_in21,1,511,NaN,bird,bicycle,90,0511_rot_dnn_90_bicycle_20_n03792782_26383.png
mlp_mixer_l_in21,1,512,NaN,clock,oven,90,0512_rot_dnn_90_oven_20_n04111531_5216.png
mlp_mixer_l_in21,1,513,NaN,car,airplane,180,0513_rot_dnn_180_airplane_20_n02690373_20331.png
mlp_mixer_l_in21,1,514,NaN,chair,truck,180,0514_rot_dnn_180_truck_20_n04467665_23691.png
mlp_mixer_l_in21,1,515,NaN,car,bird,0,0515_rot_dnn_0_bird_20_n02009229_492.png
mlp_mixer_l_in21,1,516,NaN,chair,bird,90,0516_rot_dnn_90_bird_20_n02002556_5890.png
mlp_mixer_l_in21,1,517,NaN,car,bird,270,0517_rot_dnn_270_bird_20_n01855032_5358.png
mlp_mixer_l_in21,1,518,NaN,bear,dog,180,0518_rot_dnn_180_dog_20_n02112350_10026.png
mlp_mixer_l_in21,1,519,NaN,oven,knife,90,0519_rot_dnn_90_knife_20_n03041632_11773.png
mlp_mixer_l_in21,1,520,NaN,dog,elephant,0,0520_rot_dnn_0_elephant_20_n02504013_20486.png
mlp_mixer_l_in21,1,521,NaN,oven,oven,0,0521_rot_dnn_0_oven_20_n04111531_27.png
mlp_mixer_l_in21,1,522,NaN,car,bird,180,0522_rot_dnn_180_bird_20_n01855672_15421.png
mlp_mixer_l_in21,1,523,NaN,dog,bear,270,0523_rot_dnn_270_bear_20_n02132136_239.png
mlp_mixer_l_in21,1,524,NaN,bicycle,keyboard,90,0524_rot_dnn_90_keyboard_20_n03085013_25924.png
mlp_mixer_l_in21,1,525,NaN,bird,bicycle,180,0525_rot_dnn_180_bicycle_20_n03792782_6030.png
mlp_mixer_l_in21,1,526,NaN,chair,bottle,270,0526_rot_dnn_270_bottle_20_n03983396_5497.png
mlp_mixer_l_in21,1,527,NaN,bird,chair,180,0527_rot_dnn_180_chair_20_n04429376_6390.png
mlp_mixer_l_in21,1,528,NaN,dog,dog,90,0528_rot_dnn_90_dog_20_n02100877_11159.png
mlp_mixer_l_in21,1,529,NaN,chair,bottle,180,0529_rot_dnn_180_bottle_20_n04579145_579.png
mlp_mixer_l_in21,1,530,NaN,dog,cat,90,0530_rot_dnn_90_cat_20_n02123159_5678.png
mlp_mixer_l_in21,1,531,NaN,bird,elephant,180,0531_rot_dnn_180_elephant_20_n02504013_13283.png
mlp_mixer_l_in21,1,532,NaN,dog,dog,90,0532_rot_dnn_90_dog_20_n02095570_7633.png
mlp_mixer_l_in21,1,533,NaN,bottle,clock,180,0533_rot_dnn_180_clock_20_n02708093_8311.png
mlp_mixer_l_in21,1,534,NaN,bird,chair,270,0534_rot_dnn_270_chair_20_n03376595_426.png
mlp_mixer_l_in21,1,535,NaN,bird,dog,180,0535_rot_dnn_180_dog_20_n02100877_3112.png
mlp_mixer_l_in21,1,536,NaN,oven,car,270,0536_rot_dnn_270_car_20_n02814533_458.png
mlp_mixer_l_in21,1,537,NaN,dog,bird,0,0537_rot_dnn_0_bird_20_n02006656_5079.png
mlp_mixer_l_in21,1,538,NaN,bird,boat,90,0538_rot_dnn_90_boat_20_n04273569_12725.png
mlp_mixer_l_in21,1,539,NaN,dog,cat,270,0539_rot_dnn_270_cat_20_n02123045_6677.png
mlp_mixer_l_in21,1,540,NaN,bird,bicycle,270,0540_rot_dnn_270_bicycle_20_n02835271_4440.png
mlp_mixer_l_in21,1,541,NaN,chair,keyboard,270,0541_rot_dnn_270_keyboard_20_n03085013_21444.png
mlp_mixer_l_in21,1,542,NaN,bird,clock,180,0542_rot_dnn_180_clock_20_n02708093_8255.png
mlp_mixer_l_in21,1,543,NaN,bird,bicycle,0,0543_rot_dnn_0_bicycle_20_n02835271_30318.png
mlp_mixer_l_in21,1,544,NaN,car,cat,180,0544_rot_dnn_180_cat_20_n02123394_2059.png
mlp_mixer_l_in21,1,545,NaN,chair,elephant,180,0545_rot_dnn_180_elephant_20_n02504013_6618.png
mlp_mixer_l_in21,1,546,NaN,dog,cat,270,0546_rot_dnn_270_cat_20_n02124075_8889.png
mlp_mixer_l_in21,1,547,NaN,car,dog,90,0547_rot_dnn_90_dog_20_n02100877_7302.png
mlp_mixer_l_in21,1,548,NaN,bird,car,180,0548_rot_dnn_180_car_20_n02814533_85971.png
mlp_mixer_l_in21,1,549,NaN,oven,chair,0,0549_rot_dnn_0_chair_20_n03376595_5909.png
mlp_mixer_l_in21,1,550,NaN,bird,keyboard,270,0550_rot_dnn_270_keyboard_20_n03085013_13083.png
mlp_mixer_l_in21,1,551,NaN,oven,oven,90,0551_rot_dnn_90_oven_20_n04111531_9611.png
mlp_mixer_l_in21,1,552,NaN,bird,boat,0,0552_rot_dnn_0_boat_20_n02951358_13996.png
mlp_mixer_l_in21,1,553,NaN,bird,boat,0,0553_rot_dnn_0_boat_20_n03344393_9251.png
mlp_mixer_l_in21,1,554,NaN,oven,airplane,180,0554_rot_dnn_180_airplane_20_n02690373_9175.png
mlp_mixer_l_in21,1,555,NaN,dog,bear,0,0555_rot_dnn_0_bear_20_n02132136_2791.png
mlp_mixer_l_in21,1,556,NaN,knife,elephant,180,0556_rot_dnn_180_elephant_20_n02504458_193.png
mlp_mixer_l_in21,1,557,NaN,oven,bird,270,0557_rot_dnn_270_bird_20_n01843383_9985.png
mlp_mixer_l_in21,1,558,NaN,car,bird,270,0558_rot_dnn_270_bird_20_n02028035_10744.png
mlp_mixer_l_in21,1,559,NaN,bird,truck,270,0559_rot_dnn_270_truck_20_n04467665_3720.png
mlp_mixer_l_in21,1,560,NaN,car,car,0,0560_rot_dnn_0_car_20_n02814533_52605.png
mlp_mixer_l_in21,1,561,NaN,bird,clock,90,0561_rot_dnn_90_clock_20_n04548280_5631.png
mlp_mixer_l_in21,1,562,NaN,oven,oven,0,0562_rot_dnn_0_oven_20_n04111531_1922.png
mlp_mixer_l_in21,1,563,NaN,elephant,boat,180,0563_rot_dnn_180_boat_20_n03662601_1197.png
mlp_mixer_l_in21,1,564,NaN,bird,clock,270,0564_rot_dnn_270_clock_20_n02708093_1862.png
mlp_mixer_l_in21,1,565,NaN,chair,truck,180,0565_rot_dnn_180_truck_20_n03796401_4582.png
mlp_mixer_l_in21,1,566,NaN,bottle,elephant,90,0566_rot_dnn_90_elephant_20_n02504013_565.png
mlp_mixer_l_in21,1,567,NaN,truck,truck,180,0567_rot_dnn_180_truck_20_n04467665_49826.png
mlp_mixer_l_in21,1,568,NaN,knife,bear,270,0568_rot_dnn_270_bear_20_n02134418_5067.png
mlp_mixer_l_in21,1,569,NaN,elephant,chair,90,0569_rot_dnn_90_chair_20_n04429376_29223.png
mlp_mixer_l_in21,1,570,NaN,bird,airplane,270,0570_rot_dnn_270_airplane_20_n02690373_5909.png
mlp_mixer_l_in21,1,571,NaN,bird,dog,270,0571_rot_dnn_270_dog_20_n02097658_722.png
mlp_mixer_l_in21,1,572,NaN,chair,oven,0,0572_rot_dnn_0_oven_20_n04111531_10339.png
mlp_mixer_l_in21,1,573,NaN,elephant,truck,90,0573_rot_dnn_90_truck_20_n03417042_28078.png
mlp_mixer_l_in21,1,574,NaN,bird,chair,180,0574_rot_dnn_180_chair_20_n04099969_22118.png
mlp_mixer_l_in21,1,575,NaN,bird,clock,270,0575_rot_dnn_270_clock_20_n04548280_7978.png
mlp_mixer_l_in21,1,576,NaN,car,bear,180,0576_rot_dnn_180_bear_20_n02133161_1962.png
mlp_mixer_l_in21,1,577,NaN,bird,clock,180,0577_rot_dnn_180_clock_20_n04548280_13750.png
mlp_mixer_l_in21,1,578,NaN,car,keyboard,0,0578_rot_dnn_0_keyboard_20_n03085013_15249.png
mlp_mixer_l_in21,1,579,NaN,elephant,car,90,0579_rot_dnn_90_car_20_n02814533_479.png
mlp_mixer_l_in21,1,580,NaN,dog,keyboard,270,0580_rot_dnn_270_keyboard_20_n03085013_20716.png
mlp_mixer_l_in21,1,581,NaN,oven,bird,180,0581_rot_dnn_180_bird_20_n01530575_7990.png
mlp_mixer_l_in21,1,582,NaN,bird,chair,0,0582_rot_dnn_0_chair_20_n04429376_17343.png
mlp_mixer_l_in21,1,583,NaN,car,chair,90,0583_rot_dnn_90_chair_20_n02791124_8775.png
mlp_mixer_l_in21,1,584,NaN,dog,cat,90,0584_rot_dnn_90_cat_20_n02125311_2959.png
mlp_mixer_l_in21,1,585,NaN,bird,oven,180,0585_rot_dnn_180_oven_20_n04111531_13906.png
mlp_mixer_l_in21,1,586,NaN,oven,airplane,90,0586_rot_dnn_90_airplane_20_n02690373_7293.png
mlp_mixer_l_in21,1,587,NaN,bird,chair,180,0587_rot_dnn_180_chair_20_n04099969_10825.png
mlp_mixer_l_in21,1,588,NaN,bottle,airplane,180,0588_rot_dnn_180_airplane_20_n02690373_17044.png
mlp_mixer_l_in21,1,589,NaN,car,bird,0,0589_rot_dnn_0_bird_20_n01797886_6169.png
mlp_mixer_l_in21,1,590,NaN,dog,oven,0,0590_rot_dnn_0_oven_20_n04111531_13255.png
mlp_mixer_l_in21,1,591,NaN,bottle,knife,270,0591_rot_dnn_270_knife_20_n03041632_17820.png
mlp_mixer_l_in21,1,592,NaN,bird,bicycle,270,0592_rot_dnn_270_bicycle_20_n02835271_21640.png
mlp_mixer_l_in21,1,593,NaN,dog,bear,0,0593_rot_dnn_0_bear_20_n02134418_517.png
mlp_mixer_l_in21,1,594,NaN,elephant,airplane,180,0594_rot_dnn_180_airplane_20_n02690373_4588.png
mlp_mixer_l_in21,1,595,NaN,car,bottle,270,0595_rot_dnn_270_bottle_20_n02823428_12190.png
mlp_mixer_l_in21,1,596,NaN,car,bottle,0,0596_rot_dnn_0_bottle_20_n04591713_1717.png
mlp_mixer_l_in21,1,597,NaN,elephant,knife,0,0597_rot_dnn_0_knife_20_n03041632_9488.png
mlp_mixer_l_in21,1,598,NaN,bird,truck,90,0598_rot_dnn_90_truck_20_n03417042_11166.png
mlp_mixer_l_in21,1,599,NaN,dog,elephant,90,0599_rot_dnn_90_elephant_20_n02504458_585.png
mlp_mixer_l_in21,1,600,NaN,elephant,keyboard,0,0600_rot_dnn_0_keyboard_20_n04505470_5046.png
mlp_mixer_l_in21,1,601,NaN,bird,chair,180,0601_rot_dnn_180_chair_20_n03376595_4937.png
mlp_mixer_l_in21,1,602,NaN,oven,boat,180,0602_rot_dnn_180_boat_20_n03662601_1740.png
mlp_mixer_l_in21,1,603,NaN,dog,knife,0,0603_rot_dnn_0_knife_20_n03041632_4037.png
mlp_mixer_l_in21,1,604,NaN,bird,boat,0,0604_rot_dnn_0_boat_20_n04273569_1538.png
mlp_mixer_l_in21,1,605,NaN,oven,bird,0,0605_rot_dnn_0_bird_20_n02017213_15918.png
mlp_mixer_l_in21,1,606,NaN,truck,keyboard,0,0606_rot_dnn_0_keyboard_20_n03085013_10463.png
mlp_mixer_l_in21,1,607,NaN,truck,bear,270,0607_rot_dnn_270_bear_20_n02133161_7939.png
mlp_mixer_l_in21,1,608,NaN,bird,car,270,0608_rot_dnn_270_car_20_n04285008_11704.png
mlp_mixer_l_in21,1,609,NaN,bird,truck,90,0609_rot_dnn_90_truck_20_n03796401_16046.png
mlp_mixer_l_in21,1,610,NaN,oven,chair,270,0610_rot_dnn_270_chair_20_n02791124_3710.png
mlp_mixer_l_in21,1,611,NaN,car,keyboard,180,0611_rot_dnn_180_keyboard_20_n04505470_3566.png
mlp_mixer_l_in21,1,612,NaN,bird,bird,90,0612_rot_dnn_90_bird_20_n02037110_8716.png
mlp_mixer_l_in21,1,613,NaN,bird,car,0,0613_rot_dnn_0_car_20_n03100240_19550.png
mlp_mixer_l_in21,1,614,NaN,car,airplane,270,0614_rot_dnn_270_airplane_20_n02690373_10769.png
mlp_mixer_l_in21,1,615,NaN,bird,bicycle,0,0615_rot_dnn_0_bicycle_20_n03792782_3456.png
mlp_mixer_l_in21,1,616,NaN,elephant,chair,0,0616_rot_dnn_0_chair_20_n03376595_2368.png
mlp_mixer_l_in21,1,617,NaN,dog,dog,0,0617_rot_dnn_0_dog_20_n02091467_2974.png
mlp_mixer_l_in21,1,618,NaN,car,knife,180,0618_rot_dnn_180_knife_20_n03041632_43634.png
mlp_mixer_l_in21,1,619,NaN,car,keyboard,180,0619_rot_dnn_180_keyboard_20_n04505470_4477.png
mlp_mixer_l_in21,1,620,NaN,bear,boat,90,0620_rot_dnn_90_boat_20_n03344393_4773.png
mlp_mixer_l_in21,1,621,NaN,elephant,airplane,180,0621_rot_dnn_180_airplane_20_n02690373_139.png
mlp_mixer_l_in21,1,622,NaN,bird,knife,270,0622_rot_dnn_270_knife_20_n03041632_737.png
mlp_mixer_l_in21,1,623,NaN,oven,chair,270,0623_rot_dnn_270_chair_20_n02791124_2698.png
mlp_mixer_l_in21,1,624,NaN,clock,truck,270,0624_rot_dnn_270_truck_20_n03417042_5301.png
mlp_mixer_l_in21,1,625,NaN,dog,bird,0,0625_rot_dnn_0_bird_20_n02006656_5757.png
mlp_mixer_l_in21,1,626,NaN,bear,bear,270,0626_rot_dnn_270_bear_20_n02132136_15174.png
mlp_mixer_l_in21,1,627,NaN,car,bottle,270,0627_rot_dnn_270_bottle_20_n04560804_6329.png
mlp_mixer_l_in21,1,628,NaN,car,truck,0,0628_rot_dnn_0_truck_20_n03417042_22196.png
mlp_mixer_l_in21,1,629,NaN,dog,cat,0,0629_rot_dnn_0_cat_20_n02125311_18366.png
mlp_mixer_l_in21,1,630,NaN,bird,chair,0,0630_rot_dnn_0_chair_20_n02791124_12707.png
mlp_mixer_l_in21,1,631,NaN,oven,oven,180,0631_rot_dnn_180_oven_20_n04111531_1938.png
mlp_mixer_l_in21,1,632,NaN,oven,airplane,270,0632_rot_dnn_270_airplane_20_n02690373_9346.png
mlp_mixer_l_in21,1,633,NaN,dog,cat,0,0633_rot_dnn_0_cat_20_n02123045_10433.png
mlp_mixer_l_in21,1,634,NaN,elephant,airplane,180,0634_rot_dnn_180_airplane_20_n02690373_5055.png
mlp_mixer_l_in21,1,635,NaN,dog,clock,270,0635_rot_dnn_270_clock_20_n04548280_4198.png
mlp_mixer_l_in21,1,636,NaN,car,bicycle,90,0636_rot_dnn_90_bicycle_20_n03792782_12010.png
mlp_mixer_l_in21,1,637,NaN,dog,cat,180,0637_rot_dnn_180_cat_20_n02125311_24586.png
mlp_mixer_l_in21,1,638,NaN,car,chair,0,0638_rot_dnn_0_chair_20_n02791124_3220.png
mlp_mixer_l_in21,1,639,NaN,bottle,car,90,0639_rot_dnn_90_car_20_n04285008_12737.png
mlp_mixer_l_in21,1,640,NaN,bird,chair,180,0640_rot_dnn_180_chair_20_n04429376_4296.png
mlp_mixer_l_in21,1,641,NaN,bird,airplane,90,0641_rot_dnn_90_airplane_20_n02690373_5534.png
mlp_mixer_l_in21,1,642,NaN,bird,dog,180,0642_rot_dnn_180_dog_20_n02113978_2286.png
mlp_mixer_l_in21,1,643,NaN,bird,dog,0,0643_rot_dnn_0_dog_20_n02087394_3354.png
mlp_mixer_l_in21,1,644,NaN,bird,chair,180,0644_rot_dnn_180_chair_20_n03376595_2103.png
mlp_mixer_l_in21,1,645,NaN,dog,elephant,0,0645_rot_dnn_0_elephant_20_n02504458_5181.png
mlp_mixer_l_in21,1,646,NaN,car,chair,270,0646_rot_dnn_270_chair_20_n02791124_10287.png
mlp_mixer_l_in21,1,647,NaN,bird,oven,90,0647_rot_dnn_90_oven_20_n04111531_22291.png
mlp_mixer_l_in21,1,648,NaN,car,bottle,90,0648_rot_dnn_90_bottle_20_n03937543_4399.png
mlp_mixer_l_in21,1,649,NaN,bird,truck,90,0649_rot_dnn_90_truck_20_n03796401_13226.png
mlp_mixer_l_in21,1,650,NaN,bird,airplane,270,0650_rot_dnn_270_airplane_20_n02690373_5430.png
mlp_mixer_l_in21,1,651,NaN,dog,cat,90,0651_rot_dnn_90_cat_20_n02124075_20.png
mlp_mixer_l_in21,1,652,NaN,elephant,keyboard,90,0652_rot_dnn_90_keyboard_20_n04505470_4943.png
mlp_mixer_l_in21,1,653,NaN,car,car,180,0653_rot_dnn_180_car_20_n03100240_4288.png
mlp_mixer_l_in21,1,654,NaN,bird,dog,0,0654_rot_dnn_0_dog_20_n02109525_7478.png
mlp_mixer_l_in21,1,655,NaN,bird,bicycle,0,0655_rot_dnn_0_bicycle_20_n03792782_4895.png
mlp_mixer_l_in21,1,656,NaN,clock,oven,0,0656_rot_dnn_0_oven_20_n04111531_8077.png
mlp_mixer_l_in21,1,657,NaN,bear,airplane,90,0657_rot_dnn_90_airplane_20_n02690373_4845.png
mlp_mixer_l_in21,1,658,NaN,dog,cat,90,0658_rot_dnn_90_cat_20_n02125311_59332.png
mlp_mixer_l_in21,1,659,NaN,bird,bicycle,180,0659_rot_dnn_180_bicycle_20_n02835271_24.png
mlp_mixer_l_in21,1,660,NaN,car,truck,180,0660_rot_dnn_180_truck_20_n04467665_22637.png
mlp_mixer_l_in21,1,661,NaN,dog,dog,180,0661_rot_dnn_180_dog_20_n02101006_6694.png
mlp_mixer_l_in21,1,662,NaN,bird,car,0,0662_rot_dnn_0_car_20_n02814533_37256.png
mlp_mixer_l_in21,1,663,NaN,dog,bear,0,0663_rot_dnn_0_bear_20_n02134418_132.png
mlp_mixer_l_in21,1,664,NaN,car,knife,180,0664_rot_dnn_180_knife_20_n03041632_41310.png
mlp_mixer_l_in21,1,665,NaN,car,bird,0,0665_rot_dnn_0_bird_20_n01530575_3198.png
mlp_mixer_l_in21,1,666,NaN,bird,bicycle,180,0666_rot_dnn_180_bicycle_20_n02835271_3643.png
mlp_mixer_l_in21,1,667,NaN,bird,chair,180,0667_rot_dnn_180_chair_20_n02791124_3186.png
mlp_mixer_l_in21,1,668,NaN,bird,chair,270,0668_rot_dnn_270_chair_20_n04099969_5396.png
mlp_mixer_l_in21,1,669,NaN,bird,dog,0,0669_rot_dnn_0_dog_20_n02110806_749.png
mlp_mixer_l_in21,1,670,NaN,car,car,180,0670_rot_dnn_180_car_20_n04285008_7155.png
mlp_mixer_l_in21,1,671,NaN,elephant,airplane,270,0671_rot_dnn_270_airplane_20_n02690373_6621.png
mlp_mixer_l_in21,1,672,NaN,dog,cat,270,0672_rot_dnn_270_cat_20_n02124075_11727.png
mlp_mixer_l_in21,1,673,NaN,dog,elephant,180,0673_rot_dnn_180_elephant_20_n02504013_1078.png
mlp_mixer_l_in21,1,674,NaN,bird,knife,180,0674_rot_dnn_180_knife_20_n03041632_21017.png
mlp_mixer_l_in21,1,675,NaN,bird,knife,180,0675_rot_dnn_180_knife_20_n03041632_22330.png
mlp_mixer_l_in21,1,676,NaN,bird,clock,270,0676_rot_dnn_270_clock_20_n03196217_368.png
mlp_mixer_l_in21,1,677,NaN,elephant,knife,0,0677_rot_dnn_0_knife_20_n03041632_99912.png
mlp_mixer_l_in21,1,678,NaN,car,boat,180,0678_rot_dnn_180_boat_20_n03344393_7705.png
mlp_mixer_l_in21,1,679,NaN,dog,bear,180,0679_rot_dnn_180_bear_20_n02134084_41588.png
mlp_mixer_l_in21,1,680,NaN,bicycle,knife,0,0680_rot_dnn_0_knife_20_n03041632_45775.png
mlp_mixer_l_in21,1,681,NaN,bird,bicycle,180,0681_rot_dnn_180_bicycle_20_n02835271_24630.png
mlp_mixer_l_in21,1,682,NaN,clock,boat,270,0682_rot_dnn_270_boat_20_n03662601_22973.png
mlp_mixer_l_in21,1,683,NaN,oven,car,270,0683_rot_dnn_270_car_20_n02814533_8042.png
mlp_mixer_l_in21,1,684,NaN,bird,boat,0,0684_rot_dnn_0_boat_20_n03662601_17483.png
mlp_mixer_l_in21,1,685,NaN,bird,bicycle,180,0685_rot_dnn_180_bicycle_20_n03792782_13680.png
mlp_mixer_l_in21,1,686,NaN,chair,chair,180,0686_rot_dnn_180_chair_20_n03376595_15468.png
mlp_mixer_l_in21,1,687,NaN,car,knife,270,0687_rot_dnn_270_knife_20_n03041632_26236.png
mlp_mixer_l_in21,1,688,NaN,bear,cat,180,0688_rot_dnn_180_cat_20_n02125311_41650.png
mlp_mixer_l_in21,1,689,NaN,bottle,car,90,0689_rot_dnn_90_car_20_n02814533_5916.png
mlp_mixer_l_in21,1,690,NaN,bird,knife,180,0690_rot_dnn_180_knife_20_n03041632_7116.png
mlp_mixer_l_in21,1,691,NaN,knife,bottle,90,0691_rot_dnn_90_bottle_20_n04560804_13583.png
mlp_mixer_l_in21,1,692,NaN,bird,bicycle,180,0692_rot_dnn_180_bicycle_20_n02835271_10933.png
mlp_mixer_l_in21,1,693,NaN,bird,truck,180,0693_rot_dnn_180_truck_20_n04467665_9589.png
mlp_mixer_l_in21,1,694,NaN,car,car,180,0694_rot_dnn_180_car_20_n03100240_1750.png
mlp_mixer_l_in21,1,695,NaN,dog,bear,270,0695_rot_dnn_270_bear_20_n02134418_1094.png
mlp_mixer_l_in21,1,696,NaN,car,clock,0,0696_rot_dnn_0_clock_20_n04548280_7792.png
mlp_mixer_l_in21,1,697,NaN,car,airplane,0,0697_rot_dnn_0_airplane_20_n02690373_7142.png
mlp_mixer_l_in21,1,698,NaN,car,keyboard,0,0698_rot_dnn_0_keyboard_20_n04505470_7312.png
mlp_mixer_l_in21,1,699,NaN,dog,bear,90,0699_rot_dnn_90_bear_20_n02132136_18953.png
mlp_mixer_l_in21,1,700,NaN,bird,bird,270,0700_rot_dnn_270_bird_20_n02056570_9303.png
mlp_mixer_l_in21,1,701,NaN,bird,chair,0,0701_rot_dnn_0_chair_20_n02791124_4956.png
mlp_mixer_l_in21,1,702,NaN,bird,dog,0,0702_rot_dnn_0_dog_20_n02087394_9061.png
mlp_mixer_l_in21,1,703,NaN,car,bird,270,0703_rot_dnn_270_bird_20_n02025239_13707.png
mlp_mixer_l_in21,1,704,NaN,car,knife,270,0704_rot_dnn_270_knife_20_n03041632_14916.png
mlp_mixer_l_in21,1,705,NaN,bird,chair,180,0705_rot_dnn_180_chair_20_n02791124_1287.png
mlp_mixer_l_in21,1,706,NaN,dog,bear,180,0706_rot_dnn_180_bear_20_n02134418_1825.png
mlp_mixer_l_in21,1,707,NaN,dog,elephant,0,0707_rot_dnn_0_elephant_20_n02504013_6999.png
mlp_mixer_l_in21,1,708,NaN,bird,clock,270,0708_rot_dnn_270_clock_20_n04548280_7050.png
mlp_mixer_l_in21,1,709,NaN,dog,cat,180,0709_rot_dnn_180_cat_20_n02123394_8100.png
mlp_mixer_l_in21,1,710,NaN,bird,oven,180,0710_rot_dnn_180_oven_20_n04111531_11026.png
mlp_mixer_l_in21,1,711,NaN,elephant,car,0,0711_rot_dnn_0_car_20_n02814533_79974.png
mlp_mixer_l_in21,1,712,NaN,bird,chair,0,0712_rot_dnn_0_chair_20_n04429376_10994.png
mlp_mixer_l_in21,1,713,NaN,bird,boat,90,0713_rot_dnn_90_boat_20_n02951358_582.png
mlp_mixer_l_in21,1,714,NaN,oven,keyboard,270,0714_rot_dnn_270_keyboard_20_n03085013_24385.png
mlp_mixer_l_in21,1,715,NaN,dog,bear,0,0715_rot_dnn_0_bear_20_n02133161_4218.png
mlp_mixer_l_in21,1,716,NaN,dog,keyboard,270,0716_rot_dnn_270_keyboard_20_n03085013_1070.png
mlp_mixer_l_in21,1,717,NaN,bird,bicycle,180,0717_rot_dnn_180_bicycle_20_n02835271_2131.png
mlp_mixer_l_in21,1,718,NaN,bird,oven,90,0718_rot_dnn_90_oven_20_n04111531_8988.png
mlp_mixer_l_in21,1,719,NaN,bicycle,elephant,90,0719_rot_dnn_90_elephant_20_n02504458_3608.png
mlp_mixer_l_in21,1,720,NaN,truck,boat,270,0720_rot_dnn_270_boat_20_n03344393_2961.png
mlp_mixer_l_in21,1,721,NaN,car,oven,90,0721_rot_dnn_90_oven_20_n04111531_12980.png
mlp_mixer_l_in21,1,722,NaN,bird,airplane,180,0722_rot_dnn_180_airplane_20_n02690373_7046.png
mlp_mixer_l_in21,1,723,NaN,car,bottle,0,0723_rot_dnn_0_bottle_20_n03937543_1929.png
mlp_mixer_l_in21,1,724,NaN,bird,dog,90,0724_rot_dnn_90_dog_20_n02087394_7707.png
mlp_mixer_l_in21,1,725,NaN,bird,chair,180,0725_rot_dnn_180_chair_20_n03376595_9219.png
mlp_mixer_l_in21,1,726,NaN,car,airplane,180,0726_rot_dnn_180_airplane_20_n02690373_5838.png
mlp_mixer_l_in21,1,727,NaN,elephant,chair,0,0727_rot_dnn_0_chair_20_n04099969_16669.png
mlp_mixer_l_in21,1,728,NaN,dog,bird,180,0728_rot_dnn_180_bird_20_n01532829_37796.png
mlp_mixer_l_in21,1,729,NaN,car,airplane,180,0729_rot_dnn_180_airplane_20_n02690373_6602.png
mlp_mixer_l_in21,1,730,NaN,bird,bear,180,0730_rot_dnn_180_bear_20_n02134418_200.png
mlp_mixer_l_in21,1,731,NaN,bird,car,0,0731_rot_dnn_0_car_20_n03100240_16084.png
mlp_mixer_l_in21,1,732,NaN,bird,bear,270,0732_rot_dnn_270_bear_20_n02134084_18952.png
mlp_mixer_l_in21,1,733,NaN,bird,boat,90,0733_rot_dnn_90_boat_20_n04273569_1050.png
mlp_mixer_l_in21,1,734,NaN,dog,dog,0,0734_rot_dnn_0_dog_20_n02092339_659.png
mlp_mixer_l_in21,1,735,NaN,dog,elephant,0,0735_rot_dnn_0_elephant_20_n02504458_493.png
mlp_mixer_l_in21,1,736,NaN,car,truck,90,0736_rot_dnn_90_truck_20_n03417042_9238.png
mlp_mixer_l_in21,1,737,NaN,oven,truck,90,0737_rot_dnn_90_truck_20_n04467665_8303.png
mlp_mixer_l_in21,1,738,NaN,clock,cat,270,0738_rot_dnn_270_cat_20_n02123394_6969.png
mlp_mixer_l_in21,1,739,NaN,oven,bottle,90,0739_rot_dnn_90_bottle_20_n03983396_618.png
mlp_mixer_l_in21,1,740,NaN,dog,elephant,0,0740_rot_dnn_0_elephant_20_n02504458_8621.png
mlp_mixer_l_in21,1,741,NaN,bird,bicycle,90,0741_rot_dnn_90_bicycle_20_n02835271_3308.png
mlp_mixer_l_in21,1,742,NaN,car,bird,90,0742_rot_dnn_90_bird_20_n02025239_17065.png
mlp_mixer_l_in21,1,743,NaN,dog,clock,0,0743_rot_dnn_0_clock_20_n04548280_4582.png
mlp_mixer_l_in21,1,744,NaN,bird,keyboard,180,0744_rot_dnn_180_keyboard_20_n04505470_933.png
mlp_mixer_l_in21,1,745,NaN,dog,cat,270,0745_rot_dnn_270_cat_20_n02123597_2549.png
mlp_mixer_l_in21,1,746,NaN,car,boat,90,0746_rot_dnn_90_boat_20_n04612504_30766.png
mlp_mixer_l_in21,1,747,NaN,bird,airplane,90,0747_rot_dnn_90_airplane_20_n02690373_4695.png
mlp_mixer_l_in21,1,748,NaN,car,oven,0,0748_rot_dnn_0_oven_20_n04111531_18648.png
mlp_mixer_l_in21,1,749,NaN,oven,bicycle,180,0749_rot_dnn_180_bicycle_20_n02835271_14862.png
mlp_mixer_l_in21,1,750,NaN,cat,knife,180,0750_rot_dnn_180_knife_20_n03041632_101810.png
mlp_mixer_l_in21,1,751,NaN,car,keyboard,0,0751_rot_dnn_0_keyboard_20_n03085013_3795.png
mlp_mixer_l_in21,1,752,NaN,bird,clock,90,0752_rot_dnn_90_clock_20_n03196217_1458.png
mlp_mixer_l_in21,1,753,NaN,knife,bear,180,0753_rot_dnn_180_bear_20_n02134418_4458.png
mlp_mixer_l_in21,1,754,NaN,dog,cat,180,0754_rot_dnn_180_cat_20_n02123045_11545.png
mlp_mixer_l_in21,1,755,NaN,chair,bird,270,0755_rot_dnn_270_bird_20_n01592084_8100.png
mlp_mixer_l_in21,1,756,NaN,elephant,car,270,0756_rot_dnn_270_car_20_n04285008_12504.png
mlp_mixer_l_in21,1,757,NaN,elephant,bear,180,0757_rot_dnn_180_bear_20_n02133161_5235.png
mlp_mixer_l_in21,1,758,NaN,dog,cat,270,0758_rot_dnn_270_cat_20_n02125311_33586.png
mlp_mixer_l_in21,1,759,NaN,bear,bird,180,0759_rot_dnn_180_bird_20_n01820546_1089.png
mlp_mixer_l_in21,1,760,NaN,car,knife,270,0760_rot_dnn_270_knife_20_n03041632_18995.png
mlp_mixer_l_in21,1,761,NaN,car,bottle,90,0761_rot_dnn_90_bottle_20_n02823428_4299.png
mlp_mixer_l_in21,1,762,NaN,dog,cat,90,0762_rot_dnn_90_cat_20_n02123045_7294.png
mlp_mixer_l_in21,1,763,NaN,bird,truck,180,0763_rot_dnn_180_truck_20_n03796401_6315.png
mlp_mixer_l_in21,1,764,NaN,dog,knife,90,0764_rot_dnn_90_knife_20_n03041632_30248.png
mlp_mixer_l_in21,1,765,NaN,bird,clock,270,0765_rot_dnn_270_clock_20_n02708093_1981.png
mlp_mixer_l_in21,1,766,NaN,bird,bird,180,0766_rot_dnn_180_bird_20_n02002724_6462.png
mlp_mixer_l_in21,1,767,NaN,bird,chair,90,0767_rot_dnn_90_chair_20_n04099969_48945.png
mlp_mixer_l_in21,1,768,NaN,car,clock,270,0768_rot_dnn_270_clock_20_n03196217_2291.png
mlp_mixer_l_in21,1,769,NaN,car,bottle,90,0769_rot_dnn_90_bottle_20_n03937543_4830.png
mlp_mixer_l_in21,1,770,NaN,bear,bear,180,0770_rot_dnn_180_bear_20_n02134418_5260.png
mlp_mixer_l_in21,1,771,NaN,car,keyboard,90,0771_rot_dnn_90_keyboard_20_n04505470_4047.png
mlp_mixer_l_in21,1,772,NaN,oven,bird,270,0772_rot_dnn_270_bird_20_n01531178_4324.png
mlp_mixer_l_in21,1,773,NaN,dog,knife,90,0773_rot_dnn_90_knife_20_n03041632_4806.png
mlp_mixer_l_in21,1,774,NaN,car,bottle,270,0774_rot_dnn_270_bottle_20_n04557648_4727.png
mlp_mixer_l_in21,1,775,NaN,dog,dog,270,0775_rot_dnn_270_dog_20_n02092002_5845.png
mlp_mixer_l_in21,1,776,NaN,bird,knife,180,0776_rot_dnn_180_knife_20_n03041632_9580.png
mlp_mixer_l_in21,1,777,NaN,car,oven,90,0777_rot_dnn_90_oven_20_n04111531_7728.png
mlp_mixer_l_in21,1,778,NaN,dog,bear,0,0778_rot_dnn_0_bear_20_n02134084_3934.png
mlp_mixer_l_in21,1,779,NaN,bird,bottle,270,0779_rot_dnn_270_bottle_20_n04557648_16525.png
mlp_mixer_l_in21,1,780,NaN,bird,bottle,0,0780_rot_dnn_0_bottle_20_n03983396_4313.png
mlp_mixer_l_in21,1,781,NaN,dog,dog,0,0781_rot_dnn_0_dog_20_n02097209_1042.png
mlp_mixer_l_in21,1,782,NaN,oven,airplane,270,0782_rot_dnn_270_airplane_20_n02690373_8876.png
mlp_mixer_l_in21,1,783,NaN,dog,cat,270,0783_rot_dnn_270_cat_20_n02123597_2219.png
mlp_mixer_l_in21,1,784,NaN,bird,boat,270,0784_rot_dnn_270_boat_20_n02951358_9837.png
mlp_mixer_l_in21,1,785,NaN,car,bird,180,0785_rot_dnn_180_bird_20_n02018207_5735.png
mlp_mixer_l_in21,1,786,NaN,bird,boat,0,0786_rot_dnn_0_boat_20_n03662601_7324.png
mlp_mixer_l_in21,1,787,NaN,chair,bottle,90,0787_rot_dnn_90_bottle_20_n04579145_6509.png
mlp_mixer_l_in21,1,788,NaN,dog,clock,0,0788_rot_dnn_0_clock_20_n02708093_2030.png
mlp_mixer_l_in21,1,789,NaN,car,chair,0,0789_rot_dnn_0_chair_20_n04099969_5854.png
mlp_mixer_l_in21,1,790,NaN,elephant,clock,0,0790_rot_dnn_0_clock_20_n04548280_7211.png
mlp_mixer_l_in21,1,791,NaN,bottle,bear,270,0791_rot_dnn_270_bear_20_n02134084_3903.png
mlp_mixer_l_in21,1,792,NaN,bird,bear,90,0792_rot_dnn_90_bear_20_n02134084_7817.png
mlp_mixer_l_in21,1,793,NaN,bottle,dog,90,0793_rot_dnn_90_dog_20_n02099601_10748.png
mlp_mixer_l_in21,1,794,NaN,bird,oven,0,0794_rot_dnn_0_oven_20_n04111531_1230.png
mlp_mixer_l_in21,1,795,NaN,bird,car,0,0795_rot_dnn_0_car_20_n02814533_70448.png
mlp_mixer_l_in21,1,796,NaN,car,knife,0,0796_rot_dnn_0_knife_20_n03041632_49570.png
mlp_mixer_l_in21,1,797,NaN,elephant,car,0,0797_rot_dnn_0_car_20_n04285008_12909.png
mlp_mixer_l_in21,1,798,NaN,bird,boat,0,0798_rot_dnn_0_boat_20_n03344393_6297.png
mlp_mixer_l_in21,1,799,NaN,oven,keyboard,90,0799_rot_dnn_90_keyboard_20_n03085013_22665.png
mlp_mixer_l_in21,1,800,NaN,dog,dog,270,0800_rot_dnn_270_dog_20_n02109047_13710.png
mlp_mixer_l_in21,1,801,NaN,oven,car,270,0801_rot_dnn_270_car_20_n02814533_23563.png
mlp_mixer_l_in21,1,802,NaN,bird,bicycle,0,0802_rot_dnn_0_bicycle_20_n03792782_892.png
mlp_mixer_l_in21,1,803,NaN,bicycle,bird,180,0803_rot_dnn_180_bird_20_n01616318_1164.png
mlp_mixer_l_in21,1,804,NaN,clock,bear,270,0804_rot_dnn_270_bear_20_n02134418_5827.png
mlp_mixer_l_in21,1,805,NaN,oven,knife,270,0805_rot_dnn_270_knife_20_n03041632_424.png
mlp_mixer_l_in21,1,806,NaN,car,elephant,90,0806_rot_dnn_90_elephant_20_n02504013_4379.png
mlp_mixer_l_in21,1,807,NaN,car,keyboard,0,0807_rot_dnn_0_keyboard_20_n03085013_22744.png
mlp_mixer_l_in21,1,808,NaN,elephant,clock,90,0808_rot_dnn_90_clock_20_n04548280_5937.png
mlp_mixer_l_in21,1,809,NaN,chair,bottle,90,0809_rot_dnn_90_bottle_20_n03983396_5514.png
mlp_mixer_l_in21,1,810,NaN,bird,truck,0,0810_rot_dnn_0_truck_20_n03417042_889.png
mlp_mixer_l_in21,1,811,NaN,bird,clock,180,0811_rot_dnn_180_clock_20_n02708093_906.png
mlp_mixer_l_in21,1,812,NaN,dog,bicycle,180,0812_rot_dnn_180_bicycle_20_n03792782_15282.png
mlp_mixer_l_in21,1,813,NaN,dog,clock,90,0813_rot_dnn_90_clock_20_n04548280_1254.png
mlp_mixer_l_in21,1,814,NaN,bird,airplane,0,0814_rot_dnn_0_airplane_20_n02690373_764.png
mlp_mixer_l_in21,1,815,NaN,car,bicycle,270,0815_rot_dnn_270_bicycle_20_n02835271_22206.png
mlp_mixer_l_in21,1,816,NaN,chair,bottle,0,0816_rot_dnn_0_bottle_20_n02823428_3570.png
mlp_mixer_l_in21,1,817,NaN,bird,bicycle,180,0817_rot_dnn_180_bicycle_20_n03792782_14413.png
mlp_mixer_l_in21,1,818,NaN,dog,bear,90,0818_rot_dnn_90_bear_20_n02134418_2661.png
mlp_mixer_l_in21,1,819,NaN,dog,cat,270,0819_rot_dnn_270_cat_20_n02123394_4700.png
mlp_mixer_l_in21,1,820,NaN,car,bottle,0,0820_rot_dnn_0_bottle_20_n04557648_3959.png
mlp_mixer_l_in21,1,821,NaN,dog,bottle,90,0821_rot_dnn_90_bottle_20_n03937543_2469.png
mlp_mixer_l_in21,1,822,NaN,bird,clock,90,0822_rot_dnn_90_clock_20_n02708093_2676.png
mlp_mixer_l_in21,1,823,NaN,dog,cat,0,0823_rot_dnn_0_cat_20_n02123597_19872.png
mlp_mixer_l_in21,1,824,NaN,bird,oven,180,0824_rot_dnn_180_oven_20_n04111531_14488.png
mlp_mixer_l_in21,1,825,NaN,elephant,clock,270,0825_rot_dnn_270_clock_20_n02708093_3841.png
mlp_mixer_l_in21,1,826,NaN,dog,cat,180,0826_rot_dnn_180_cat_20_n02123045_11787.png
mlp_mixer_l_in21,1,827,NaN,bird,elephant,90,0827_rot_dnn_90_elephant_20_n02504458_6470.png
mlp_mixer_l_in21,1,828,NaN,car,bird,270,0828_rot_dnn_270_bird_20_n01558993_55.png
mlp_mixer_l_in21,1,829,NaN,knife,elephant,270,0829_rot_dnn_270_elephant_20_n02504458_8296.png
mlp_mixer_l_in21,1,830,NaN,clock,car,270,0830_rot_dnn_270_car_20_n02814533_41670.png
mlp_mixer_l_in21,1,831,NaN,bird,bottle,0,0831_rot_dnn_0_bottle_20_n03983396_1881.png
mlp_mixer_l_in21,1,832,NaN,bird,airplane,180,0832_rot_dnn_180_airplane_20_n02690373_1491.png
mlp_mixer_l_in21,1,833,NaN,dog,oven,0,0833_rot_dnn_0_oven_20_n04111531_6204.png
mlp_mixer_l_in21,1,834,NaN,car,elephant,270,0834_rot_dnn_270_elephant_20_n02504013_5364.png
mlp_mixer_l_in21,1,835,NaN,car,airplane,0,0835_rot_dnn_0_airplane_20_n02690373_389.png
mlp_mixer_l_in21,1,836,NaN,dog,cat,90,0836_rot_dnn_90_cat_20_n02123159_6933.png
mlp_mixer_l_in21,1,837,NaN,dog,dog,90,0837_rot_dnn_90_dog_20_n02111277_2994.png
mlp_mixer_l_in21,1,838,NaN,dog,dog,0,0838_rot_dnn_0_dog_20_n02112018_7786.png
mlp_mixer_l_in21,1,839,NaN,dog,bear,90,0839_rot_dnn_90_bear_20_n02134418_10879.png
mlp_mixer_l_in21,1,840,NaN,bird,clock,270,0840_rot_dnn_270_clock_20_n03196217_1984.png
mlp_mixer_l_in21,1,841,NaN,elephant,clock,270,0841_rot_dnn_270_clock_20_n03196217_5433.png
mlp_mixer_l_in21,1,842,NaN,clock,bird,90,0842_rot_dnn_90_bird_20_n02006656_10849.png
mlp_mixer_l_in21,1,843,NaN,bird,bicycle,0,0843_rot_dnn_0_bicycle_20_n03792782_15757.png
mlp_mixer_l_in21,1,844,NaN,bird,bicycle,90,0844_rot_dnn_90_bicycle_20_n02835271_4797.png
mlp_mixer_l_in21,1,845,NaN,bicycle,clock,0,0845_rot_dnn_0_clock_20_n02708093_1897.png
mlp_mixer_l_in21,1,846,NaN,elephant,bottle,270,0846_rot_dnn_270_bottle_20_n02823428_1495.png
mlp_mixer_l_in21,1,847,NaN,oven,clock,0,0847_rot_dnn_0_clock_20_n04548280_3038.png
mlp_mixer_l_in21,1,848,NaN,car,bird,90,0848_rot_dnn_90_bird_20_n01614925_2052.png
mlp_mixer_l_in21,1,849,NaN,bird,boat,0,0849_rot_dnn_0_boat_20_n03662601_16495.png
mlp_mixer_l_in21,1,850,NaN,bird,knife,90,0850_rot_dnn_90_knife_20_n03041632_33255.png
mlp_mixer_l_in21,1,851,NaN,bird,keyboard,180,0851_rot_dnn_180_keyboard_20_n03085013_24105.png
mlp_mixer_l_in21,1,852,NaN,car,bird,0,0852_rot_dnn_0_bird_20_n02033041_3924.png
mlp_mixer_l_in21,1,853,NaN,dog,dog,90,0853_rot_dnn_90_dog_20_n02110806_8971.png
mlp_mixer_l_in21,1,854,NaN,elephant,keyboard,270,0854_rot_dnn_270_keyboard_20_n04505470_2055.png
mlp_mixer_l_in21,1,855,NaN,car,car,270,0855_rot_dnn_270_car_20_n03100240_5946.png
mlp_mixer_l_in21,1,856,NaN,bird,boat,180,0856_rot_dnn_180_boat_20_n03662601_3955.png
mlp_mixer_l_in21,1,857,NaN,car,clock,270,0857_rot_dnn_270_clock_20_n02708093_5577.png
mlp_mixer_l_in21,1,858,NaN,dog,bird,180,0858_rot_dnn_180_bird_20_n02027492_6213.png
mlp_mixer_l_in21,1,859,NaN,car,truck,270,0859_rot_dnn_270_truck_20_n04467665_70509.png
mlp_mixer_l_in21,1,860,NaN,dog,cat,90,0860_rot_dnn_90_cat_20_n02123597_2522.png
mlp_mixer_l_in21,1,861,NaN,car,car,0,0861_rot_dnn_0_car_20_n03100240_18679.png
mlp_mixer_l_in21,1,862,NaN,dog,clock,270,0862_rot_dnn_270_clock_20_n03196217_1829.png
mlp_mixer_l_in21,1,863,NaN,keyboard,truck,0,0863_rot_dnn_0_truck_20_n03796401_5058.png
mlp_mixer_l_in21,1,864,NaN,oven,car,0,0864_rot_dnn_0_car_20_n02814533_88986.png
mlp_mixer_l_in21,1,865,NaN,elephant,bicycle,90,0865_rot_dnn_90_bicycle_20_n03792782_1924.png
mlp_mixer_l_in21,1,866,NaN,bird,chair,180,0866_rot_dnn_180_chair_20_n04429376_3898.png
mlp_mixer_l_in21,1,867,NaN,oven,truck,90,0867_rot_dnn_90_truck_20_n03417042_21946.png
mlp_mixer_l_in21,1,868,NaN,bird,truck,0,0868_rot_dnn_0_truck_20_n04467665_84527.png
mlp_mixer_l_in21,1,869,NaN,oven,bicycle,90,0869_rot_dnn_90_bicycle_20_n03792782_16117.png
mlp_mixer_l_in21,1,870,NaN,bear,boat,0,0870_rot_dnn_0_boat_20_n04273569_23800.png
mlp_mixer_l_in21,1,871,NaN,bicycle,knife,90,0871_rot_dnn_90_knife_20_n03041632_19620.png
mlp_mixer_l_in21,1,872,NaN,bird,bicycle,180,0872_rot_dnn_180_bicycle_20_n03792782_26168.png
mlp_mixer_l_in21,1,873,NaN,dog,bear,0,0873_rot_dnn_0_bear_20_n02132136_1386.png
mlp_mixer_l_in21,1,874,NaN,dog,keyboard,90,0874_rot_dnn_90_keyboard_20_n03085013_23625.png
mlp_mixer_l_in21,1,875,NaN,oven,bottle,0,0875_rot_dnn_0_bottle_20_n04557648_757.png
mlp_mixer_l_in21,1,876,NaN,dog,dog,0,0876_rot_dnn_0_dog_20_n02102318_501.png
mlp_mixer_l_in21,1,877,NaN,bird,airplane,270,0877_rot_dnn_270_airplane_20_n02690373_6104.png
mlp_mixer_l_in21,1,878,NaN,dog,dog,0,0878_rot_dnn_0_dog_20_n02089973_9526.png
mlp_mixer_l_in21,1,879,NaN,car,boat,180,0879_rot_dnn_180_boat_20_n04612504_14176.png
mlp_mixer_l_in21,1,880,NaN,dog,cat,180,0880_rot_dnn_180_cat_20_n02125311_43726.png
mlp_mixer_l_in21,1,881,NaN,dog,chair,90,0881_rot_dnn_90_chair_20_n04429376_13191.png
mlp_mixer_l_in21,1,882,NaN,chair,oven,180,0882_rot_dnn_180_oven_20_n04111531_3611.png
mlp_mixer_l_in21,1,883,NaN,car,bottle,180,0883_rot_dnn_180_bottle_20_n04560804_15267.png
mlp_mixer_l_in21,1,884,NaN,dog,knife,180,0884_rot_dnn_180_knife_20_n03041632_2630.png
mlp_mixer_l_in21,1,885,NaN,dog,cat,90,0885_rot_dnn_90_cat_20_n02124075_14998.png
mlp_mixer_l_in21,1,886,NaN,car,oven,90,0886_rot_dnn_90_oven_20_n04111531_1556.png
mlp_mixer_l_in21,1,887,NaN,bird,chair,270,0887_rot_dnn_270_chair_20_n02791124_5561.png
mlp_mixer_l_in21,1,888,NaN,bird,car,0,0888_rot_dnn_0_car_20_n03100240_2195.png
mlp_mixer_l_in21,1,889,NaN,dog,bear,270,0889_rot_dnn_270_bear_20_n02134084_1802.png
mlp_mixer_l_in21,1,890,NaN,clock,clock,180,0890_rot_dnn_180_clock_20_n03196217_571.png
mlp_mixer_l_in21,1,891,NaN,car,knife,0,0891_rot_dnn_0_knife_20_n03041632_24113.png
mlp_mixer_l_in21,1,892,NaN,bird,airplane,0,0892_rot_dnn_0_airplane_20_n02690373_9829.png
mlp_mixer_l_in21,1,893,NaN,dog,truck,90,0893_rot_dnn_90_truck_20_n03796401_15105.png
mlp_mixer_l_in21,1,894,NaN,car,bird,90,0894_rot_dnn_90_bird_20_n02018795_414.png
mlp_mixer_l_in21,1,895,NaN,dog,elephant,270,0895_rot_dnn_270_elephant_20_n02504013_13512.png
mlp_mixer_l_in21,1,896,NaN,dog,keyboard,180,0896_rot_dnn_180_keyboard_20_n03085013_6405.png
mlp_mixer_l_in21,1,897,NaN,bear,elephant,90,0897_rot_dnn_90_elephant_20_n02504013_344.png
mlp_mixer_l_in21,1,898,NaN,bird,boat,180,0898_rot_dnn_180_boat_20_n02951358_3511.png
mlp_mixer_l_in21,1,899,NaN,dog,keyboard,180,0899_rot_dnn_180_keyboard_20_n03085013_3691.png
mlp_mixer_l_in21,1,900,NaN,truck,elephant,180,0900_rot_dnn_180_elephant_20_n02504458_5816.png
mlp_mixer_l_in21,1,901,NaN,oven,keyboard,180,0901_rot_dnn_180_keyboard_20_n04505470_10746.png
mlp_mixer_l_in21,1,902,NaN,car,truck,0,0902_rot_dnn_0_truck_20_n03417042_21047.png
mlp_mixer_l_in21,1,903,NaN,bird,boat,0,0903_rot_dnn_0_boat_20_n03662601_8410.png
mlp_mixer_l_in21,1,904,NaN,bird,airplane,270,0904_rot_dnn_270_airplane_20_n02690373_1235.png
mlp_mixer_l_in21,1,905,NaN,dog,cat,180,0905_rot_dnn_180_cat_20_n02123159_630.png
mlp_mixer_l_in21,1,906,NaN,oven,knife,90,0906_rot_dnn_90_knife_20_n03041632_51339.png
mlp_mixer_l_in21,1,907,NaN,bird,car,90,0907_rot_dnn_90_car_20_n04285008_8641.png
mlp_mixer_l_in21,1,908,NaN,oven,dog,90,0908_rot_dnn_90_dog_20_n02093428_17633.png
mlp_mixer_l_in21,1,909,NaN,clock,bear,90,0909_rot_dnn_90_bear_20_n02133161_15177.png
mlp_mixer_l_in21,1,910,NaN,car,boat,270,0910_rot_dnn_270_boat_20_n02951358_1362.png
mlp_mixer_l_in21,1,911,NaN,bird,airplane,270,0911_rot_dnn_270_airplane_20_n02690373_6459.png
mlp_mixer_l_in21,1,912,NaN,car,bottle,0,0912_rot_dnn_0_bottle_20_n03937543_1197.png
mlp_mixer_l_in21,1,913,NaN,dog,bear,0,0913_rot_dnn_0_bear_20_n02132136_9797.png
mlp_mixer_l_in21,1,914,NaN,bird,clock,270,0914_rot_dnn_270_clock_20_n02708093_3674.png
mlp_mixer_l_in21,1,915,NaN,bird,bear,0,0915_rot_dnn_0_bear_20_n02132136_2799.png
mlp_mixer_l_in21,1,916,NaN,bottle,bird,270,0916_rot_dnn_270_bird_20_n01582220_6459.png
mlp_mixer_l_in21,1,917,NaN,bear,bird,0,0917_rot_dnn_0_bird_20_n01817953_141.png
mlp_mixer_l_in21,1,918,NaN,bird,bicycle,90,0918_rot_dnn_90_bicycle_20_n03792782_15016.png
mlp_mixer_l_in21,1,919,NaN,car,car,270,0919_rot_dnn_270_car_20_n04285008_17151.png
mlp_mixer_l_in21,1,920,NaN,bird,truck,180,0920_rot_dnn_180_truck_20_n03796401_2258.png
mlp_mixer_l_in21,1,921,NaN,bird,knife,0,0921_rot_dnn_0_knife_20_n03041632_10263.png
mlp_mixer_l_in21,1,922,NaN,oven,knife,90,0922_rot_dnn_90_knife_20_n03041632_30079.png
mlp_mixer_l_in21,1,923,NaN,clock,oven,0,0923_rot_dnn_0_oven_20_n04111531_24065.png
mlp_mixer_l_in21,1,924,NaN,car,airplane,180,0924_rot_dnn_180_airplane_20_n02690373_3669.png
mlp_mixer_l_in21,1,925,NaN,bird,boat,180,0925_rot_dnn_180_boat_20_n02951358_3819.png
mlp_mixer_l_in21,1,926,NaN,elephant,clock,0,0926_rot_dnn_0_clock_20_n04548280_8278.png
mlp_mixer_l_in21,1,927,NaN,bird,bird,0,0927_rot_dnn_0_bird_20_n01855672_55568.png
mlp_mixer_l_in21,1,928,NaN,oven,keyboard,90,0928_rot_dnn_90_keyboard_20_n04505470_961.png
mlp_mixer_l_in21,1,929,NaN,dog,bear,0,0929_rot_dnn_0_bear_20_n02133161_2040.png
mlp_mixer_l_in21,1,930,NaN,bird,chair,270,0930_rot_dnn_270_chair_20_n04099969_9243.png
mlp_mixer_l_in21,1,931,NaN,bird,truck,90,0931_rot_dnn_90_truck_20_n04467665_15994.png
mlp_mixer_l_in21,1,932,NaN,bird,knife,270,0932_rot_dnn_270_knife_20_n03041632_29940.png
mlp_mixer_l_in21,1,933,NaN,bird,clock,180,0933_rot_dnn_180_clock_20_n03196217_1271.png
mlp_mixer_l_in21,1,934,NaN,car,knife,180,0934_rot_dnn_180_knife_20_n03041632_33268.png
mlp_mixer_l_in21,1,935,NaN,dog,cat,270,0935_rot_dnn_270_cat_20_n02123045_13025.png
mlp_mixer_l_in21,1,936,NaN,truck,elephant,270,0936_rot_dnn_270_elephant_20_n02504013_4339.png
mlp_mixer_l_in21,1,937,NaN,dog,airplane,90,0937_rot_dnn_90_airplane_20_n02690373_3050.png
mlp_mixer_l_in21,1,938,NaN,car,chair,90,0938_rot_dnn_90_chair_20_n04099969_2561.png
mlp_mixer_l_in21,1,939,NaN,car,dog,180,0939_rot_dnn_180_dog_20_n02097047_5605.png
mlp_mixer_l_in21,1,940,NaN,bird,airplane,180,0940_rot_dnn_180_airplane_20_n02690373_6332.png
mlp_mixer_l_in21,1,941,NaN,chair,bottle,180,0941_rot_dnn_180_bottle_20_n02823428_3298.png
mlp_mixer_l_in21,1,942,NaN,dog,cat,90,0942_rot_dnn_90_cat_20_n02124075_1121.png
mlp_mixer_l_in21,1,943,NaN,bird,bicycle,90,0943_rot_dnn_90_bicycle_20_n03792782_42978.png
mlp_mixer_l_in21,1,944,NaN,dog,bottle,0,0944_rot_dnn_0_bottle_20_n04560804_15625.png
mlp_mixer_l_in21,1,945,NaN,bird,boat,180,0945_rot_dnn_180_boat_20_n04612504_13034.png
mlp_mixer_l_in21,1,946,NaN,car,dog,180,0946_rot_dnn_180_dog_20_n02099267_4999.png
mlp_mixer_l_in21,1,947,NaN,bird,chair,0,0947_rot_dnn_0_chair_20_n04099969_6431.png
mlp_mixer_l_in21,1,948,NaN,car,truck,0,0948_rot_dnn_0_truck_20_n03417042_6975.png
mlp_mixer_l_in21,1,949,NaN,dog,dog,270,0949_rot_dnn_270_dog_20_n02113023_291.png
mlp_mixer_l_in21,1,950,NaN,bird,airplane,180,0950_rot_dnn_180_airplane_20_n02690373_2038.png
mlp_mixer_l_in21,1,951,NaN,dog,bear,90,0951_rot_dnn_90_bear_20_n02134418_5783.png
mlp_mixer_l_in21,1,952,NaN,dog,airplane,90,0952_rot_dnn_90_airplane_20_n02690373_12929.png
mlp_mixer_l_in21,1,953,NaN,car,oven,90,0953_rot_dnn_90_oven_20_n04111531_2618.png
mlp_mixer_l_in21,1,954,NaN,car,bird,180,0954_rot_dnn_180_bird_20_n02009912_18708.png
mlp_mixer_l_in21,1,955,NaN,clock,clock,0,0955_rot_dnn_0_clock_20_n03196217_1255.png
mlp_mixer_l_in21,1,956,NaN,elephant,airplane,180,0956_rot_dnn_180_airplane_20_n02690373_2128.png
mlp_mixer_l_in21,1,957,NaN,bird,airplane,180,0957_rot_dnn_180_airplane_20_n02690373_852.png
mlp_mixer_l_in21,1,958,NaN,bird,oven,270,0958_rot_dnn_270_oven_20_n04111531_18430.png
mlp_mixer_l_in21,1,959,NaN,car,bird,0,0959_rot_dnn_0_bird_20_n01534433_1227.png
mlp_mixer_l_in21,1,960,NaN,elephant,car,0,0960_rot_dnn_0_car_20_n03100240_3927.png
mlp_mixer_l_in21,1,961,NaN,bird,knife,0,0961_rot_dnn_0_knife_20_n03041632_43289.png
mlp_mixer_l_in21,1,962,NaN,dog,dog,180,0962_rot_dnn_180_dog_20_n02109961_36163.png
mlp_mixer_l_in21,1,963,NaN,clock,airplane,0,0963_rot_dnn_0_airplane_20_n02690373_2379.png
mlp_mixer_l_in21,1,964,NaN,chair,oven,270,0964_rot_dnn_270_oven_20_n04111531_9429.png
mlp_mixer_l_in21,1,965,NaN,car,keyboard,0,0965_rot_dnn_0_keyboard_20_n04505470_763.png
mlp_mixer_l_in21,1,966,NaN,elephant,oven,90,0966_rot_dnn_90_oven_20_n04111531_4327.png
mlp_mixer_l_in21,1,967,NaN,bird,boat,270,0967_rot_dnn_270_boat_20_n03344393_1533.png
mlp_mixer_l_in21,1,968,NaN,chair,elephant,180,0968_rot_dnn_180_elephant_20_n02504458_1504.png
mlp_mixer_l_in21,1,969,NaN,bird,dog,0,0969_rot_dnn_0_dog_20_n02091831_332.png
mlp_mixer_l_in21,1,970,NaN,cat,knife,270,0970_rot_dnn_270_knife_20_n03041632_7205.png
mlp_mixer_l_in21,1,971,NaN,dog,dog,0,0971_rot_dnn_0_dog_20_n02104029_4770.png
mlp_mixer_l_in21,1,972,NaN,dog,elephant,0,0972_rot_dnn_0_elephant_20_n02504013_1636.png
mlp_mixer_l_in21,1,973,NaN,car,cat,270,0973_rot_dnn_270_cat_20_n02123597_6434.png
mlp_mixer_l_in21,1,974,NaN,bird,airplane,270,0974_rot_dnn_270_airplane_20_n02690373_4434.png
mlp_mixer_l_in21,1,975,NaN,clock,bicycle,180,0975_rot_dnn_180_bicycle_20_n03792782_70555.png
mlp_mixer_l_in21,1,976,NaN,dog,bear,90,0976_rot_dnn_90_bear_20_n02132136_14056.png
mlp_mixer_l_in21,1,977,NaN,bottle,car,270,0977_rot_dnn_270_car_20_n03100240_17226.png
mlp_mixer_l_in21,1,978,NaN,elephant,chair,180,0978_rot_dnn_180_chair_20_n02791124_880.png
mlp_mixer_l_in21,1,979,NaN,bird,elephant,270,0979_rot_dnn_270_elephant_20_n02504013_7724.png
mlp_mixer_l_in21,1,980,NaN,oven,keyboard,90,0980_rot_dnn_90_keyboard_20_n04505470_4173.png
mlp_mixer_l_in21,1,981,NaN,dog,boat,0,0981_rot_dnn_0_boat_20_n03344393_9127.png
mlp_mixer_l_in21,1,982,NaN,bird,knife,180,0982_rot_dnn_180_knife_20_n03041632_39883.png
mlp_mixer_l_in21,1,983,NaN,keyboard,bird,90,0983_rot_dnn_90_bird_20_n01797886_2347.png
mlp_mixer_l_in21,1,984,NaN,bird,oven,90,0984_rot_dnn_90_oven_20_n04111531_11157.png
mlp_mixer_l_in21,1,985,NaN,bird,airplane,270,0985_rot_dnn_270_airplane_20_n02690373_2584.png
mlp_mixer_l_in21,1,986,NaN,bird,chair,180,0986_rot_dnn_180_chair_20_n02791124_3923.png
mlp_mixer_l_in21,1,987,NaN,bird,bicycle,0,0987_rot_dnn_0_bicycle_20_n02835271_12743.png
mlp_mixer_l_in21,1,988,NaN,bird,truck,180,0988_rot_dnn_180_truck_20_n03417042_21663.png
mlp_mixer_l_in21,1,989,NaN,bird,bicycle,270,0989_rot_dnn_270_bicycle_20_n03792782_50904.png
mlp_mixer_l_in21,1,990,NaN,car,clock,0,0990_rot_dnn_0_clock_20_n03196217_5103.png
mlp_mixer_l_in21,1,991,NaN,bird,elephant,180,0991_rot_dnn_180_elephant_20_n02504458_5641.png
mlp_mixer_l_in21,1,992,NaN,elephant,airplane,0,0992_rot_dnn_0_airplane_20_n02690373_8163.png
mlp_mixer_l_in21,1,993,NaN,chair,oven,270,0993_rot_dnn_270_oven_20_n04111531_22041.png
mlp_mixer_l_in21,1,994,NaN,dog,dog,0,0994_rot_dnn_0_dog_20_n02106550_1763.png
mlp_mixer_l_in21,1,995,NaN,dog,dog,270,0995_rot_dnn_270_dog_20_n02094433_1289.png
mlp_mixer_l_in21,1,996,NaN,elephant,keyboard,270,0996_rot_dnn_270_keyboard_20_n04505470_6662.png
mlp_mixer_l_in21,1,997,NaN,car,knife,180,0997_rot_dnn_180_knife_20_n03041632_24228.png
mlp_mixer_l_in21,1,998,NaN,oven,truck,180,0998_rot_dnn_180_truck_20_n04467665_13225.png
mlp_mixer_l_in21,1,999,NaN,bird,elephant,180,0999_rot_dnn_180_elephant_20_n02504013_7926.png
mlp_mixer_l_in21,1,1000,NaN,bird,bicycle,0,1000_rot_dnn_0_bicycle_20_n02835271_9310.png
mlp_mixer_l_in21,1,1001,NaN,car,clock,180,1001_rot_dnn_180_clock_20_n04548280_3305.png
mlp_mixer_l_in21,1,1002,NaN,dog,dog,270,1002_rot_dnn_270_dog_20_n02105505_3286.png
mlp_mixer_l_in21,1,1003,NaN,dog,cat,180,1003_rot_dnn_180_cat_20_n02123045_5999.png
mlp_mixer_l_in21,1,1004,NaN,car,truck,180,1004_rot_dnn_180_truck_20_n03417042_5004.png
mlp_mixer_l_in21,1,1005,NaN,dog,bird,270,1005_rot_dnn_270_bird_20_n02013706_652.png
mlp_mixer_l_in21,1,1006,NaN,bear,bird,270,1006_rot_dnn_270_bird_20_n02018207_7930.png
mlp_mixer_l_in21,1,1007,NaN,bird,truck,180,1007_rot_dnn_180_truck_20_n03417042_6539.png
mlp_mixer_l_in21,1,1008,NaN,bird,elephant,90,1008_rot_dnn_90_elephant_20_n02504458_12090.png
mlp_mixer_l_in21,1,1009,NaN,car,truck,270,1009_rot_dnn_270_truck_20_n03417042_9552.png
mlp_mixer_l_in21,1,1010,NaN,clock,dog,180,1010_rot_dnn_180_dog_20_n02111277_4038.png
mlp_mixer_l_in21,1,1011,NaN,bottle,bottle,270,1011_rot_dnn_270_bottle_20_n04591713_7036.png
mlp_mixer_l_in21,1,1012,NaN,bird,chair,270,1012_rot_dnn_270_chair_20_n04429376_13448.png
mlp_mixer_l_in21,1,1013,NaN,bird,oven,270,1013_rot_dnn_270_oven_20_n04111531_845.png
mlp_mixer_l_in21,1,1014,NaN,dog,dog,90,1014_rot_dnn_90_dog_20_n02090622_7692.png
mlp_mixer_l_in21,1,1015,NaN,elephant,bottle,0,1015_rot_dnn_0_bottle_20_n03983396_17262.png
mlp_mixer_l_in21,1,1016,NaN,chair,elephant,180,1016_rot_dnn_180_elephant_20_n02504458_1623.png
mlp_mixer_l_in21,1,1017,NaN,chair,keyboard,180,1017_rot_dnn_180_keyboard_20_n03085013_20960.png
mlp_mixer_l_in21,1,1018,NaN,bottle,airplane,270,1018_rot_dnn_270_airplane_20_n02690373_2629.png
mlp_mixer_l_in21,1,1019,NaN,bird,cat,270,1019_rot_dnn_270_cat_20_n02123159_7369.png
mlp_mixer_l_in21,1,1020,NaN,bird,bottle,90,1020_rot_dnn_90_bottle_20_n04560804_570.png
mlp_mixer_l_in21,1,1021,NaN,truck,car,270,1021_rot_dnn_270_car_20_n02814533_89061.png
mlp_mixer_l_in21,1,1022,NaN,car,dog,180,1022_rot_dnn_180_dog_20_n02093754_918.png
mlp_mixer_l_in21,1,1023,NaN,clock,truck,180,1023_rot_dnn_180_truck_20_n03796401_26894.png
mlp_mixer_l_in21,1,1024,NaN,car,truck,270,1024_rot_dnn_270_truck_20_n03417042_27780.png
mlp_mixer_l_in21,1,1025,NaN,chair,car,180,1025_rot_dnn_180_car_20_n02814533_75923.png
mlp_mixer_l_in21,1,1026,NaN,bird,boat,0,1026_rot_dnn_0_boat_20_n03662601_26140.png
mlp_mixer_l_in21,1,1027,NaN,dog,elephant,180,1027_rot_dnn_180_elephant_20_n02504013_1644.png
mlp_mixer_l_in21,1,1028,NaN,bird,oven,180,1028_rot_dnn_180_oven_20_n04111531_704.png
mlp_mixer_l_in21,1,1029,NaN,bird,boat,270,1029_rot_dnn_270_boat_20_n03344393_9390.png
mlp_mixer_l_in21,1,1030,NaN,dog,dog,90,1030_rot_dnn_90_dog_20_n02097047_3817.png
mlp_mixer_l_in21,1,1031,NaN,cat,elephant,270,1031_rot_dnn_270_elephant_20_n02504458_4001.png
mlp_mixer_l_in21,1,1032,NaN,dog,elephant,180,1032_rot_dnn_180_elephant_20_n02504458_259.png
mlp_mixer_l_in21,1,1033,NaN,bird,oven,180,1033_rot_dnn_180_oven_20_n04111531_4939.png
mlp_mixer_l_in21,1,1034,NaN,bicycle,elephant,90,1034_rot_dnn_90_elephant_20_n02504458_2417.png
mlp_mixer_l_in21,1,1035,NaN,clock,elephant,270,1035_rot_dnn_270_elephant_20_n02504458_30.png
mlp_mixer_l_in21,1,1036,NaN,car,chair,270,1036_rot_dnn_270_chair_20_n04099969_41686.png
mlp_mixer_l_in21,1,1037,NaN,elephant,knife,270,1037_rot_dnn_270_knife_20_n03041632_46112.png
mlp_mixer_l_in21,1,1038,NaN,car,oven,270,1038_rot_dnn_270_oven_20_n04111531_10722.png
mlp_mixer_l_in21,1,1039,NaN,oven,knife,270,1039_rot_dnn_270_knife_20_n03041632_751.png
mlp_mixer_l_in21,1,1040,NaN,bird,clock,270,1040_rot_dnn_270_clock_20_n03196217_8887.png
mlp_mixer_l_in21,1,1041,NaN,dog,chair,180,1041_rot_dnn_180_chair_20_n02791124_2938.png
mlp_mixer_l_in21,1,1042,NaN,bird,chair,90,1042_rot_dnn_90_chair_20_n02791124_1740.png
mlp_mixer_l_in21,1,1043,NaN,car,bicycle,90,1043_rot_dnn_90_bicycle_20_n03792782_442.png
mlp_mixer_l_in21,1,1044,NaN,elephant,car,180,1044_rot_dnn_180_car_20_n03100240_6479.png
mlp_mixer_l_in21,1,1045,NaN,dog,keyboard,180,1045_rot_dnn_180_keyboard_20_n03085013_24316.png
mlp_mixer_l_in21,1,1046,NaN,bird,elephant,90,1046_rot_dnn_90_elephant_20_n02504013_1500.png
mlp_mixer_l_in21,1,1047,NaN,bird,truck,180,1047_rot_dnn_180_truck_20_n03417042_189.png
mlp_mixer_l_in21,1,1048,NaN,dog,dog,180,1048_rot_dnn_180_dog_20_n02090721_1449.png
mlp_mixer_l_in21,1,1049,NaN,bird,clock,270,1049_rot_dnn_270_clock_20_n03196217_3194.png
mlp_mixer_l_in21,1,1050,NaN,car,knife,0,1050_rot_dnn_0_knife_20_n03041632_4279.png
mlp_mixer_l_in21,1,1051,NaN,bird,boat,270,1051_rot_dnn_270_boat_20_n02951358_4937.png
mlp_mixer_l_in21,1,1052,NaN,oven,clock,180,1052_rot_dnn_180_clock_20_n03196217_946.png
mlp_mixer_l_in21,1,1053,NaN,elephant,clock,0,1053_rot_dnn_0_clock_20_n04548280_6776.png
mlp_mixer_l_in21,1,1054,NaN,car,dog,90,1054_rot_dnn_90_dog_20_n02108551_7945.png
mlp_mixer_l_in21,1,1055,NaN,elephant,knife,90,1055_rot_dnn_90_knife_20_n03041632_19571.png
mlp_mixer_l_in21,1,1056,NaN,car,knife,270,1056_rot_dnn_270_knife_20_n03041632_29886.png
mlp_mixer_l_in21,1,1057,NaN,bird,oven,270,1057_rot_dnn_270_oven_20_n04111531_5015.png
mlp_mixer_l_in21,1,1058,NaN,car,bottle,180,1058_rot_dnn_180_bottle_20_n02823428_8392.png
mlp_mixer_l_in21,1,1059,NaN,oven,bird,90,1059_rot_dnn_90_bird_20_n01592084_6242.png
mlp_mixer_l_in21,1,1060,NaN,bird,bottle,0,1060_rot_dnn_0_bottle_20_n03937543_7357.png
mlp_mixer_l_in21,1,1061,NaN,dog,truck,270,1061_rot_dnn_270_truck_20_n03796401_7455.png
mlp_mixer_l_in21,1,1062,NaN,knife,clock,180,1062_rot_dnn_180_clock_20_n04548280_2313.png
mlp_mixer_l_in21,1,1063,NaN,truck,airplane,90,1063_rot_dnn_90_airplane_20_n02690373_5748.png
mlp_mixer_l_in21,1,1064,NaN,chair,elephant,90,1064_rot_dnn_90_elephant_20_n02504013_673.png
mlp_mixer_l_in21,1,1065,NaN,chair,keyboard,180,1065_rot_dnn_180_keyboard_20_n04505470_4384.png
mlp_mixer_l_in21,1,1066,NaN,bear,bird,180,1066_rot_dnn_180_bird_20_n02051845_8617.png
mlp_mixer_l_in21,1,1067,NaN,bird,bicycle,90,1067_rot_dnn_90_bicycle_20_n03792782_47774.png
mlp_mixer_l_in21,1,1068,NaN,car,oven,270,1068_rot_dnn_270_oven_20_n04111531_12952.png
mlp_mixer_l_in21,1,1069,NaN,bird,oven,180,1069_rot_dnn_180_oven_20_n04111531_2199.png
mlp_mixer_l_in21,1,1070,NaN,car,car,90,1070_rot_dnn_90_car_20_n04285008_8519.png
mlp_mixer_l_in21,1,1071,NaN,bird,boat,0,1071_rot_dnn_0_boat_20_n03344393_8032.png
mlp_mixer_l_in21,1,1072,NaN,bird,knife,0,1072_rot_dnn_0_knife_20_n03041632_6557.png
mlp_mixer_l_in21,1,1073,NaN,bird,boat,0,1073_rot_dnn_0_boat_20_n04273569_11502.png
mlp_mixer_l_in21,1,1074,NaN,clock,car,270,1074_rot_dnn_270_car_20_n03100240_7741.png
mlp_mixer_l_in21,1,1075,NaN,dog,elephant,180,1075_rot_dnn_180_elephant_20_n02504013_5035.png
mlp_mixer_l_in21,1,1076,NaN,bird,chair,90,1076_rot_dnn_90_chair_20_n02791124_5749.png
mlp_mixer_l_in21,1,1077,NaN,dog,cat,270,1077_rot_dnn_270_cat_20_n02123045_8409.png
mlp_mixer_l_in21,1,1078,NaN,chair,airplane,270,1078_rot_dnn_270_airplane_20_n02690373_8740.png
mlp_mixer_l_in21,1,1079,NaN,oven,knife,90,1079_rot_dnn_90_knife_20_n03041632_84012.png
mlp_mixer_l_in21,1,1080,NaN,bird,chair,0,1080_rot_dnn_0_chair_20_n04099969_17087.png
mlp_mixer_l_in21,1,1081,NaN,dog,elephant,270,1081_rot_dnn_270_elephant_20_n02504013_522.png
mlp_mixer_l_in21,1,1082,NaN,bird,keyboard,0,1082_rot_dnn_0_keyboard_20_n03085013_22217.png
mlp_mixer_l_in21,1,1083,NaN,oven,truck,0,1083_rot_dnn_0_truck_20_n03796401_6294.png
mlp_mixer_l_in21,1,1084,NaN,dog,clock,90,1084_rot_dnn_90_clock_20_n03196217_421.png
mlp_mixer_l_in21,1,1085,NaN,truck,bottle,90,1085_rot_dnn_90_bottle_20_n04591713_1824.png
mlp_mixer_l_in21,1,1086,NaN,bird,chair,90,1086_rot_dnn_90_chair_20_n03376595_8064.png
mlp_mixer_l_in21,1,1087,NaN,oven,airplane,90,1087_rot_dnn_90_airplane_20_n02690373_2675.png
mlp_mixer_l_in21,1,1088,NaN,elephant,keyboard,180,1088_rot_dnn_180_keyboard_20_n03085013_20478.png
mlp_mixer_l_in21,1,1089,NaN,clock,car,0,1089_rot_dnn_0_car_20_n03100240_24420.png
mlp_mixer_l_in21,1,1090,NaN,bird,bird,90,1090_rot_dnn_90_bird_20_n02011460_22646.png
mlp_mixer_l_in21,1,1091,NaN,bottle,clock,0,1091_rot_dnn_0_clock_20_n03196217_4254.png
mlp_mixer_l_in21,1,1092,NaN,dog,cat,0,1092_rot_dnn_0_cat_20_n02124075_13577.png
mlp_mixer_l_in21,1,1093,NaN,bird,chair,270,1093_rot_dnn_270_chair_20_n04099969_130.png
mlp_mixer_l_in21,1,1094,NaN,bird,oven,270,1094_rot_dnn_270_oven_20_n04111531_6863.png
mlp_mixer_l_in21,1,1095,NaN,dog,bicycle,270,1095_rot_dnn_270_bicycle_20_n02835271_8757.png
mlp_mixer_l_in21,1,1096,NaN,car,oven,180,1096_rot_dnn_180_oven_20_n04111531_16708.png
mlp_mixer_l_in21,1,1097,NaN,truck,bird,90,1097_rot_dnn_90_bird_20_n02006656_4486.png
mlp_mixer_l_in21,1,1098,NaN,oven,keyboard,90,1098_rot_dnn_90_keyboard_20_n04505470_816.png
mlp_mixer_l_in21,1,1099,NaN,knife,bear,270,1099_rot_dnn_270_bear_20_n02134418_1388.png
mlp_mixer_l_in21,1,1100,NaN,elephant,keyboard,90,1100_rot_dnn_90_keyboard_20_n04505470_3207.png
mlp_mixer_l_in21,1,1101,NaN,dog,oven,0,1101_rot_dnn_0_oven_20_n04111531_4845.png
mlp_mixer_l_in21,1,1102,NaN,car,dog,270,1102_rot_dnn_270_dog_20_n02108551_1207.png
mlp_mixer_l_in21,1,1103,NaN,bird,truck,0,1103_rot_dnn_0_truck_20_n04467665_8189.png
mlp_mixer_l_in21,1,1104,NaN,dog,cat,180,1104_rot_dnn_180_cat_20_n02124075_13437.png
mlp_mixer_l_in21,1,1105,NaN,oven,clock,180,1105_rot_dnn_180_clock_20_n02708093_2900.png
mlp_mixer_l_in21,1,1106,NaN,dog,truck,0,1106_rot_dnn_0_truck_20_n03417042_19355.png
mlp_mixer_l_in21,1,1107,NaN,clock,oven,270,1107_rot_dnn_270_oven_20_n04111531_6533.png
mlp_mixer_l_in21,1,1108,NaN,dog,bear,270,1108_rot_dnn_270_bear_20_n02132136_9358.png
mlp_mixer_l_in21,1,1109,NaN,bird,bicycle,180,1109_rot_dnn_180_bicycle_20_n03792782_3591.png
mlp_mixer_l_in21,1,1110,NaN,truck,bear,90,1110_rot_dnn_90_bear_20_n02134418_1026.png
mlp_mixer_l_in21,1,1111,NaN,bird,bottle,180,1111_rot_dnn_180_bottle_20_n03983396_2002.png
mlp_mixer_l_in21,1,1112,NaN,oven,car,90,1112_rot_dnn_90_car_20_n03100240_7495.png
mlp_mixer_l_in21,1,1113,NaN,car,bottle,180,1113_rot_dnn_180_bottle_20_n03983396_5883.png
mlp_mixer_l_in21,1,1114,NaN,dog,bicycle,270,1114_rot_dnn_270_bicycle_20_n03792782_29606.png
mlp_mixer_l_in21,1,1115,NaN,car,bird,0,1115_rot_dnn_0_bird_20_n02013706_7808.png
mlp_mixer_l_in21,1,1116,NaN,car,clock,90,1116_rot_dnn_90_clock_20_n03196217_4578.png
mlp_mixer_l_in21,1,1117,NaN,elephant,bear,180,1117_rot_dnn_180_bear_20_n02132136_9703.png
mlp_mixer_l_in21,1,1118,NaN,bird,boat,0,1118_rot_dnn_0_boat_20_n03344393_2866.png
mlp_mixer_l_in21,1,1119,NaN,dog,cat,270,1119_rot_dnn_270_cat_20_n02125311_21290.png
mlp_mixer_l_in21,1,1120,NaN,bird,car,180,1120_rot_dnn_180_car_20_n03100240_7781.png
mlp_mixer_l_in21,1,1121,NaN,bird,dog,180,1121_rot_dnn_180_dog_20_n02087394_9693.png
mlp_mixer_l_in21,1,1122,NaN,dog,cat,180,1122_rot_dnn_180_cat_20_n02123159_2285.png
mlp_mixer_l_in21,1,1123,NaN,bird,boat,270,1123_rot_dnn_270_boat_20_n03344393_3877.png
mlp_mixer_l_in21,1,1124,NaN,chair,bottle,270,1124_rot_dnn_270_bottle_20_n03983396_22816.png
mlp_mixer_l_in21,1,1125,NaN,truck,clock,270,1125_rot_dnn_270_clock_20_n03196217_2022.png
mlp_mixer_l_in21,1,1126,NaN,chair,car,180,1126_rot_dnn_180_car_20_n04285008_8530.png
mlp_mixer_l_in21,1,1127,NaN,clock,bear,270,1127_rot_dnn_270_bear_20_n02134084_147.png
mlp_mixer_l_in21,1,1128,NaN,bird,boat,0,1128_rot_dnn_0_boat_20_n02951358_18762.png
mlp_mixer_l_in21,1,1129,NaN,elephant,knife,180,1129_rot_dnn_180_knife_20_n03041632_4318.png
mlp_mixer_l_in21,1,1130,NaN,car,bottle,180,1130_rot_dnn_180_bottle_20_n04591713_6169.png
mlp_mixer_l_in21,1,1131,NaN,dog,cat,270,1131_rot_dnn_270_cat_20_n02123159_5939.png
mlp_mixer_l_in21,1,1132,NaN,dog,bear,270,1132_rot_dnn_270_bear_20_n02132136_3207.png
mlp_mixer_l_in21,1,1133,NaN,dog,dog,270,1133_rot_dnn_270_dog_20_n02107683_7183.png
mlp_mixer_l_in21,1,1134,NaN,chair,bottle,270,1134_rot_dnn_270_bottle_20_n02823428_10946.png
mlp_mixer_l_in21,1,1135,NaN,dog,elephant,270,1135_rot_dnn_270_elephant_20_n02504013_4762.png
mlp_mixer_l_in21,1,1136,NaN,bird,boat,90,1136_rot_dnn_90_boat_20_n04273569_17255.png
mlp_mixer_l_in21,1,1137,NaN,car,knife,90,1137_rot_dnn_90_knife_20_n03041632_26710.png
mlp_mixer_l_in21,1,1138,NaN,bird,car,0,1138_rot_dnn_0_car_20_n02814533_40531.png
mlp_mixer_l_in21,1,1139,NaN,oven,bottle,270,1139_rot_dnn_270_bottle_20_n04591713_3663.png
mlp_mixer_l_in21,1,1140,NaN,oven,truck,90,1140_rot_dnn_90_truck_20_n03417042_28657.png
mlp_mixer_l_in21,1,1141,NaN,bird,elephant,90,1141_rot_dnn_90_elephant_20_n02504013_318.png
mlp_mixer_l_in21,1,1142,NaN,truck,elephant,270,1142_rot_dnn_270_elephant_20_n02504013_1761.png
mlp_mixer_l_in21,1,1143,NaN,car,bottle,180,1143_rot_dnn_180_bottle_20_n02823428_8077.png
mlp_mixer_l_in21,1,1144,NaN,car,truck,90,1144_rot_dnn_90_truck_20_n04467665_90715.png
mlp_mixer_l_in21,1,1145,NaN,bird,car,90,1145_rot_dnn_90_car_20_n02814533_31743.png
mlp_mixer_l_in21,1,1146,NaN,bird,chair,90,1146_rot_dnn_90_chair_20_n03376595_14588.png
mlp_mixer_l_in21,1,1147,NaN,truck,knife,0,1147_rot_dnn_0_knife_20_n03041632_100645.png
mlp_mixer_l_in21,1,1148,NaN,oven,airplane,180,1148_rot_dnn_180_airplane_20_n02690373_9293.png
