subj,session,trial,rt,object_response,category,condition,imagename
barlow_twins,1,1,NaN,keyboard,chair,0,0001_rot_dnn_0_chair_20_n03376595_3070.png
barlow_twins,1,2,NaN,bottle,car,180,0002_rot_dnn_180_car_20_n02814533_29367.png
barlow_twins,1,3,NaN,elephant,car,270,0003_rot_dnn_270_car_20_n02814533_31083.png
barlow_twins,1,4,NaN,elephant,car,180,0004_rot_dnn_180_car_20_n03100240_1703.png
barlow_twins,1,5,NaN,elephant,bottle,180,0005_rot_dnn_180_bottle_20_n04591713_2359.png
barlow_twins,1,6,NaN,oven,dog,90,0006_rot_dnn_90_dog_20_n02111500_8796.png
barlow_twins,1,7,NaN,elephant,bear,180,0007_rot_dnn_180_bear_20_n02132136_4512.png
barlow_twins,1,8,NaN,knife,chair,90,0008_rot_dnn_90_chair_20_n03376595_4820.png
barlow_twins,1,9,NaN,airplane,bottle,270,0009_rot_dnn_270_bottle_20_n04591713_6111.png
barlow_twins,1,10,NaN,oven,bottle,270,0010_rot_dnn_270_bottle_20_n04560804_14111.png
barlow_twins,1,11,NaN,knife,dog,0,0011_rot_dnn_0_dog_20_n02099601_8656.png
barlow_twins,1,12,NaN,elephant,cat,0,0012_rot_dnn_0_cat_20_n02125311_14054.png
barlow_twins,1,13,NaN,keyboard,bear,0,0013_rot_dnn_0_bear_20_n02132136_10385.png
barlow_twins,1,14,NaN,keyboard,bottle,90,0014_rot_dnn_90_bottle_20_n02823428_10417.png
barlow_twins,1,15,NaN,keyboard,keyboard,0,0015_rot_dnn_0_keyboard_20_n03085013_23566.png
barlow_twins,1,16,NaN,oven,truck,90,0016_rot_dnn_90_truck_20_n03417042_12560.png
barlow_twins,1,17,NaN,bear,truck,180,0017_rot_dnn_180_truck_20_n04467665_69063.png
barlow_twins,1,18,NaN,airplane,oven,180,0018_rot_dnn_180_oven_20_n04111531_9712.png
barlow_twins,1,19,NaN,oven,oven,180,0019_rot_dnn_180_oven_20_n04111531_10375.png
barlow_twins,1,20,NaN,airplane,keyboard,0,0020_rot_dnn_0_keyboard_20_n04505470_1744.png
barlow_twins,1,21,NaN,elephant,boat,90,0021_rot_dnn_90_boat_20_n04273569_7296.png
barlow_twins,1,22,NaN,car,dog,0,0022_rot_dnn_0_dog_20_n02101006_4807.png
barlow_twins,1,23,NaN,bottle,clock,90,0023_rot_dnn_90_clock_20_n02708093_1986.png
barlow_twins,1,24,NaN,elephant,bottle,0,0024_rot_dnn_0_bottle_20_n04560804_15562.png
barlow_twins,1,25,NaN,oven,cat,0,0025_rot_dnn_0_cat_20_n02124075_13594.png
barlow_twins,1,26,NaN,oven,bear,90,0026_rot_dnn_90_bear_20_n02134418_4365.png
barlow_twins,1,27,NaN,elephant,bear,180,0027_rot_dnn_180_bear_20_n02132136_8650.png
barlow_twins,1,28,NaN,keyboard,bird,90,0028_rot_dnn_90_bird_20_n02009912_12219.png
barlow_twins,1,29,NaN,elephant,dog,90,0029_rot_dnn_90_dog_20_n02100236_1662.png
barlow_twins,1,30,NaN,elephant,clock,90,0030_rot_dnn_90_clock_20_n04548280_1947.png
barlow_twins,1,31,NaN,bear,dog,270,0031_rot_dnn_270_dog_20_n02109047_66167.png
barlow_twins,1,32,NaN,oven,oven,90,0032_rot_dnn_90_oven_20_n04111531_21055.png
barlow_twins,1,33,NaN,keyboard,clock,0,0033_rot_dnn_0_clock_20_n02708093_2012.png
barlow_twins,1,34,NaN,oven,elephant,0,0034_rot_dnn_0_elephant_20_n02504458_6119.png
barlow_twins,1,35,NaN,elephant,chair,0,0035_rot_dnn_0_chair_20_n04099969_12707.png
barlow_twins,1,36,NaN,airplane,keyboard,270,0036_rot_dnn_270_keyboard_20_n03085013_19054.png
barlow_twins,1,37,NaN,bottle,chair,0,0037_rot_dnn_0_chair_20_n02791124_422.png
barlow_twins,1,38,NaN,keyboard,bicycle,0,0038_rot_dnn_0_bicycle_20_n02835271_23830.png
barlow_twins,1,39,NaN,keyboard,bird,90,0039_rot_dnn_90_bird_20_n01534433_14735.png
barlow_twins,1,40,NaN,oven,bird,90,0040_rot_dnn_90_bird_20_n02011460_13994.png
barlow_twins,1,41,NaN,elephant,boat,270,0041_rot_dnn_270_boat_20_n04273569_17522.png
barlow_twins,1,42,NaN,elephant,bear,180,0042_rot_dnn_180_bear_20_n02132136_5537.png
barlow_twins,1,43,NaN,bear,bear,90,0043_rot_dnn_90_bear_20_n02132136_19248.png
barlow_twins,1,44,NaN,knife,bird,270,0044_rot_dnn_270_bird_20_n01537544_1886.png
barlow_twins,1,45,NaN,elephant,clock,180,0045_rot_dnn_180_clock_20_n03196217_4776.png
barlow_twins,1,46,NaN,oven,boat,270,0046_rot_dnn_270_boat_20_n04612504_17610.png
barlow_twins,1,47,NaN,knife,bear,90,0047_rot_dnn_90_bear_20_n02134418_1814.png
barlow_twins,1,48,NaN,knife,keyboard,180,0048_rot_dnn_180_keyboard_20_n03085013_20330.png
barlow_twins,1,49,NaN,elephant,bottle,180,0049_rot_dnn_180_bottle_20_n02823428_14574.png
barlow_twins,1,50,NaN,keyboard,bicycle,0,0050_rot_dnn_0_bicycle_20_n03792782_7105.png
barlow_twins,1,51,NaN,knife,elephant,0,0051_rot_dnn_0_elephant_20_n02504458_1302.png
barlow_twins,1,52,NaN,oven,airplane,90,0052_rot_dnn_90_airplane_20_n02690373_3877.png
barlow_twins,1,53,NaN,oven,boat,90,0053_rot_dnn_90_boat_20_n02951358_15422.png
barlow_twins,1,54,NaN,oven,car,270,0054_rot_dnn_270_car_20_n02814533_46458.png
barlow_twins,1,55,NaN,knife,car,0,0055_rot_dnn_0_car_20_n02814533_39547.png
barlow_twins,1,56,NaN,car,boat,180,0056_rot_dnn_180_boat_20_n04273569_6586.png
barlow_twins,1,57,NaN,oven,clock,90,0057_rot_dnn_90_clock_20_n02708093_3394.png
barlow_twins,1,58,NaN,oven,keyboard,180,0058_rot_dnn_180_keyboard_20_n03085013_25419.png
barlow_twins,1,59,NaN,keyboard,bottle,180,0059_rot_dnn_180_bottle_20_n04557648_1871.png
barlow_twins,1,60,NaN,oven,chair,90,0060_rot_dnn_90_chair_20_n04099969_6944.png
barlow_twins,1,61,NaN,oven,boat,270,0061_rot_dnn_270_boat_20_n04273569_1495.png
barlow_twins,1,62,NaN,oven,keyboard,90,0062_rot_dnn_90_keyboard_20_n03085013_7317.png
barlow_twins,1,63,NaN,knife,knife,90,0063_rot_dnn_90_knife_20_n03041632_7448.png
barlow_twins,1,64,NaN,oven,truck,0,0064_rot_dnn_0_truck_20_n03417042_11000.png
barlow_twins,1,65,NaN,bottle,bird,0,0065_rot_dnn_0_bird_20_n01582220_8827.png
barlow_twins,1,66,NaN,oven,airplane,270,0066_rot_dnn_270_airplane_20_n02690373_9247.png
barlow_twins,1,67,NaN,oven,bear,270,0067_rot_dnn_270_bear_20_n02133161_14397.png
barlow_twins,1,68,NaN,oven,oven,270,0068_rot_dnn_270_oven_20_n04111531_13560.png
barlow_twins,1,69,NaN,bear,bear,180,0069_rot_dnn_180_bear_20_n02132136_545.png
barlow_twins,1,70,NaN,knife,cat,90,0070_rot_dnn_90_cat_20_n02125311_73072.png
barlow_twins,1,71,NaN,airplane,bicycle,0,0071_rot_dnn_0_bicycle_20_n03792782_30530.png
barlow_twins,1,72,NaN,oven,knife,90,0072_rot_dnn_90_knife_20_n03041632_4975.png
barlow_twins,1,73,NaN,airplane,dog,90,0073_rot_dnn_90_dog_20_n02107683_3120.png
barlow_twins,1,74,NaN,chair,elephant,90,0074_rot_dnn_90_elephant_20_n02504013_7316.png
barlow_twins,1,75,NaN,elephant,truck,90,0075_rot_dnn_90_truck_20_n03796401_7284.png
barlow_twins,1,76,NaN,oven,chair,270,0076_rot_dnn_270_chair_20_n03376595_497.png
barlow_twins,1,77,NaN,oven,truck,270,0077_rot_dnn_270_truck_20_n03796401_19845.png
barlow_twins,1,78,NaN,keyboard,chair,90,0078_rot_dnn_90_chair_20_n04099969_1941.png
barlow_twins,1,79,NaN,oven,truck,90,0079_rot_dnn_90_truck_20_n03417042_28886.png
barlow_twins,1,80,NaN,keyboard,car,0,0080_rot_dnn_0_car_20_n02814533_12185.png
barlow_twins,1,81,NaN,truck,bicycle,90,0081_rot_dnn_90_bicycle_20_n02835271_1621.png
barlow_twins,1,82,NaN,oven,cat,0,0082_rot_dnn_0_cat_20_n02123597_32226.png
barlow_twins,1,83,NaN,bear,bicycle,90,0083_rot_dnn_90_bicycle_20_n03792782_5048.png
barlow_twins,1,84,NaN,knife,airplane,0,0084_rot_dnn_0_airplane_20_n02690373_10044.png
barlow_twins,1,85,NaN,knife,car,180,0085_rot_dnn_180_car_20_n03100240_5752.png
barlow_twins,1,86,NaN,oven,car,90,0086_rot_dnn_90_car_20_n02814533_68219.png
barlow_twins,1,87,NaN,knife,airplane,0,0087_rot_dnn_0_airplane_20_n02690373_1171.png
barlow_twins,1,88,NaN,keyboard,bird,90,0088_rot_dnn_90_bird_20_n01817953_6970.png
barlow_twins,1,89,NaN,knife,car,90,0089_rot_dnn_90_car_20_n04285008_15503.png
barlow_twins,1,90,NaN,keyboard,boat,270,0090_rot_dnn_270_boat_20_n03344393_11886.png
barlow_twins,1,91,NaN,oven,boat,0,0091_rot_dnn_0_boat_20_n04273569_30203.png
barlow_twins,1,92,NaN,airplane,keyboard,180,0092_rot_dnn_180_keyboard_20_n03085013_22069.png
barlow_twins,1,93,NaN,elephant,knife,0,0093_rot_dnn_0_knife_20_n03041632_26314.png
barlow_twins,1,94,NaN,car,bicycle,270,0094_rot_dnn_270_bicycle_20_n03792782_18308.png
barlow_twins,1,95,NaN,truck,car,180,0095_rot_dnn_180_car_20_n04285008_8396.png
barlow_twins,1,96,NaN,bear,bear,90,0096_rot_dnn_90_bear_20_n02133161_12349.png
barlow_twins,1,97,NaN,elephant,bear,270,0097_rot_dnn_270_bear_20_n02132136_18303.png
barlow_twins,1,98,NaN,knife,cat,180,0098_rot_dnn_180_cat_20_n02123394_6853.png
barlow_twins,1,99,NaN,knife,cat,180,0099_rot_dnn_180_cat_20_n02123597_4805.png
barlow_twins,1,100,NaN,knife,car,0,0100_rot_dnn_0_car_20_n03100240_17587.png
barlow_twins,1,101,NaN,clock,bird,180,0101_rot_dnn_180_bird_20_n01601694_19236.png
barlow_twins,1,102,NaN,knife,cat,0,0102_rot_dnn_0_cat_20_n02123597_2341.png
barlow_twins,1,103,NaN,bottle,elephant,270,0103_rot_dnn_270_elephant_20_n02504013_7883.png
barlow_twins,1,104,NaN,oven,chair,270,0104_rot_dnn_270_chair_20_n03376595_14240.png
barlow_twins,1,105,NaN,knife,airplane,0,0105_rot_dnn_0_airplane_20_n02690373_10188.png
barlow_twins,1,106,NaN,oven,truck,90,0106_rot_dnn_90_truck_20_n03417042_8634.png
barlow_twins,1,107,NaN,knife,knife,90,0107_rot_dnn_90_knife_20_n03041632_32774.png
barlow_twins,1,108,NaN,clock,bottle,90,0108_rot_dnn_90_bottle_20_n03983396_4115.png
barlow_twins,1,109,NaN,oven,clock,270,0109_rot_dnn_270_clock_20_n04548280_8552.png
barlow_twins,1,110,NaN,oven,car,0,0110_rot_dnn_0_car_20_n02814533_6233.png
barlow_twins,1,111,NaN,knife,elephant,0,0111_rot_dnn_0_elephant_20_n02504458_9870.png
barlow_twins,1,112,NaN,knife,bicycle,270,0112_rot_dnn_270_bicycle_20_n02835271_3956.png
barlow_twins,1,113,NaN,airplane,knife,90,0113_rot_dnn_90_knife_20_n03041632_14817.png
barlow_twins,1,114,NaN,elephant,chair,90,0114_rot_dnn_90_chair_20_n04099969_8642.png
barlow_twins,1,115,NaN,keyboard,clock,0,0115_rot_dnn_0_clock_20_n02708093_240.png
barlow_twins,1,116,NaN,elephant,bear,180,0116_rot_dnn_180_bear_20_n02133161_3896.png
barlow_twins,1,117,NaN,clock,bottle,270,0117_rot_dnn_270_bottle_20_n04557648_11000.png
barlow_twins,1,118,NaN,knife,keyboard,90,0118_rot_dnn_90_keyboard_20_n03085013_2853.png
barlow_twins,1,119,NaN,oven,boat,90,0119_rot_dnn_90_boat_20_n04273569_7097.png
barlow_twins,1,120,NaN,car,bicycle,270,0120_rot_dnn_270_bicycle_20_n03792782_40932.png
barlow_twins,1,121,NaN,knife,chair,270,0121_rot_dnn_270_chair_20_n04429376_44914.png
barlow_twins,1,122,NaN,keyboard,bear,180,0122_rot_dnn_180_bear_20_n02134418_2122.png
barlow_twins,1,123,NaN,clock,keyboard,90,0123_rot_dnn_90_keyboard_20_n03085013_22704.png
barlow_twins,1,124,NaN,keyboard,truck,0,0124_rot_dnn_0_truck_20_n03417042_6838.png
barlow_twins,1,125,NaN,knife,elephant,0,0125_rot_dnn_0_elephant_20_n02504458_3628.png
barlow_twins,1,126,NaN,keyboard,cat,90,0126_rot_dnn_90_cat_20_n02123597_10141.png
barlow_twins,1,127,NaN,keyboard,bicycle,0,0127_rot_dnn_0_bicycle_20_n02835271_6383.png
barlow_twins,1,128,NaN,clock,car,180,0128_rot_dnn_180_car_20_n04285008_7154.png
barlow_twins,1,129,NaN,bottle,bird,0,0129_rot_dnn_0_bird_20_n02007558_1068.png
barlow_twins,1,130,NaN,elephant,cat,90,0130_rot_dnn_90_cat_20_n02125311_1896.png
barlow_twins,1,131,NaN,truck,keyboard,0,0131_rot_dnn_0_keyboard_20_n04505470_1903.png
barlow_twins,1,132,NaN,bicycle,bicycle,90,0132_rot_dnn_90_bicycle_20_n03792782_66159.png
barlow_twins,1,133,NaN,knife,bear,90,0133_rot_dnn_90_bear_20_n02134418_5219.png
barlow_twins,1,134,NaN,airplane,car,90,0134_rot_dnn_90_car_20_n02814533_92229.png
barlow_twins,1,135,NaN,bear,dog,90,0135_rot_dnn_90_dog_20_n02090721_1002.png
barlow_twins,1,136,NaN,oven,truck,270,0136_rot_dnn_270_truck_20_n04467665_46263.png
barlow_twins,1,137,NaN,truck,bottle,180,0137_rot_dnn_180_bottle_20_n03983396_704.png
barlow_twins,1,138,NaN,knife,truck,180,0138_rot_dnn_180_truck_20_n03796401_4149.png
barlow_twins,1,139,NaN,knife,bird,0,0139_rot_dnn_0_bird_20_n02006656_2030.png
barlow_twins,1,140,NaN,knife,cat,90,0140_rot_dnn_90_cat_20_n02123394_234.png
barlow_twins,1,141,NaN,knife,chair,90,0141_rot_dnn_90_chair_20_n04429376_19916.png
barlow_twins,1,142,NaN,keyboard,truck,270,0142_rot_dnn_270_truck_20_n04467665_14024.png
barlow_twins,1,143,NaN,oven,chair,90,0143_rot_dnn_90_chair_20_n04429376_14729.png
barlow_twins,1,144,NaN,car,car,270,0144_rot_dnn_270_car_20_n02814533_82321.png
barlow_twins,1,145,NaN,elephant,clock,180,0145_rot_dnn_180_clock_20_n04548280_3701.png
barlow_twins,1,146,NaN,elephant,boat,270,0146_rot_dnn_270_boat_20_n02951358_11442.png
barlow_twins,1,147,NaN,oven,bear,90,0147_rot_dnn_90_bear_20_n02132136_17349.png
barlow_twins,1,148,NaN,oven,airplane,90,0148_rot_dnn_90_airplane_20_n02690373_4982.png
barlow_twins,1,149,NaN,knife,airplane,0,0149_rot_dnn_0_airplane_20_n02690373_2232.png
barlow_twins,1,150,NaN,keyboard,cat,180,0150_rot_dnn_180_cat_20_n02123045_909.png
barlow_twins,1,151,NaN,oven,clock,180,0151_rot_dnn_180_clock_20_n04548280_1190.png
barlow_twins,1,152,NaN,oven,oven,90,0152_rot_dnn_90_oven_20_n04111531_1855.png
barlow_twins,1,153,NaN,knife,boat,270,0153_rot_dnn_270_boat_20_n03662601_21408.png
barlow_twins,1,154,NaN,oven,dog,90,0154_rot_dnn_90_dog_20_n02088364_15877.png
barlow_twins,1,155,NaN,keyboard,knife,90,0155_rot_dnn_90_knife_20_n03041632_15250.png
barlow_twins,1,156,NaN,airplane,oven,0,0156_rot_dnn_0_oven_20_n04111531_17006.png
barlow_twins,1,157,NaN,elephant,clock,90,0157_rot_dnn_90_clock_20_n04548280_11763.png
barlow_twins,1,158,NaN,elephant,bird,270,0158_rot_dnn_270_bird_20_n02028035_8327.png
barlow_twins,1,159,NaN,oven,car,90,0159_rot_dnn_90_car_20_n04285008_5641.png
barlow_twins,1,160,NaN,bottle,oven,90,0160_rot_dnn_90_oven_20_n04111531_10727.png
barlow_twins,1,161,NaN,oven,elephant,270,0161_rot_dnn_270_elephant_20_n02504458_1971.png
barlow_twins,1,162,NaN,keyboard,bottle,180,0162_rot_dnn_180_bottle_20_n04560804_15941.png
barlow_twins,1,163,NaN,knife,elephant,0,0163_rot_dnn_0_elephant_20_n02504458_151.png
barlow_twins,1,164,NaN,oven,bear,180,0164_rot_dnn_180_bear_20_n02133161_15427.png
barlow_twins,1,165,NaN,oven,bear,180,0165_rot_dnn_180_bear_20_n02134084_20605.png
barlow_twins,1,166,NaN,oven,bottle,90,0166_rot_dnn_90_bottle_20_n04560804_2693.png
barlow_twins,1,167,NaN,oven,airplane,270,0167_rot_dnn_270_airplane_20_n02690373_8214.png
barlow_twins,1,168,NaN,knife,boat,0,0168_rot_dnn_0_boat_20_n02951358_14966.png
barlow_twins,1,169,NaN,bottle,knife,90,0169_rot_dnn_90_knife_20_n03041632_14801.png
barlow_twins,1,170,NaN,bottle,dog,90,0170_rot_dnn_90_dog_20_n02110063_8776.png
barlow_twins,1,171,NaN,elephant,dog,180,0171_rot_dnn_180_dog_20_n02100236_7671.png
barlow_twins,1,172,NaN,knife,oven,0,0172_rot_dnn_0_oven_20_n04111531_21248.png
barlow_twins,1,173,NaN,knife,knife,270,0173_rot_dnn_270_knife_20_n03041632_17100.png
barlow_twins,1,174,NaN,bear,knife,0,0174_rot_dnn_0_knife_20_n03041632_3781.png
barlow_twins,1,175,NaN,airplane,oven,270,0175_rot_dnn_270_oven_20_n04111531_46651.png
barlow_twins,1,176,NaN,knife,clock,0,0176_rot_dnn_0_clock_20_n04548280_8303.png
barlow_twins,1,177,NaN,keyboard,airplane,0,0177_rot_dnn_0_airplane_20_n02690373_2070.png
barlow_twins,1,178,NaN,airplane,car,180,0178_rot_dnn_180_car_20_n03100240_574.png
barlow_twins,1,179,NaN,clock,dog,90,0179_rot_dnn_90_dog_20_n02095570_11263.png
barlow_twins,1,180,NaN,oven,bottle,180,0180_rot_dnn_180_bottle_20_n03983396_9667.png
barlow_twins,1,181,NaN,elephant,clock,0,0181_rot_dnn_0_clock_20_n02708093_3535.png
barlow_twins,1,182,NaN,knife,bird,180,0182_rot_dnn_180_bird_20_n01531178_17239.png
barlow_twins,1,183,NaN,oven,elephant,180,0183_rot_dnn_180_elephant_20_n02504458_2272.png
barlow_twins,1,184,NaN,elephant,knife,90,0184_rot_dnn_90_knife_20_n03041632_50648.png
barlow_twins,1,185,NaN,elephant,knife,0,0185_rot_dnn_0_knife_20_n03041632_33225.png
barlow_twins,1,186,NaN,knife,airplane,0,0186_rot_dnn_0_airplane_20_n02690373_736.png
barlow_twins,1,187,NaN,oven,knife,270,0187_rot_dnn_270_knife_20_n03041632_2546.png
barlow_twins,1,188,NaN,knife,boat,180,0188_rot_dnn_180_boat_20_n04273569_13053.png
barlow_twins,1,189,NaN,knife,airplane,180,0189_rot_dnn_180_airplane_20_n02690373_3588.png
barlow_twins,1,190,NaN,oven,keyboard,0,0190_rot_dnn_0_keyboard_20_n03085013_21004.png
barlow_twins,1,191,NaN,knife,boat,180,0191_rot_dnn_180_boat_20_n03662601_16627.png
barlow_twins,1,192,NaN,bear,bird,180,0192_rot_dnn_180_bird_20_n02017213_6478.png
barlow_twins,1,193,NaN,airplane,bear,90,0193_rot_dnn_90_bear_20_n02134418_998.png
barlow_twins,1,194,NaN,airplane,truck,90,0194_rot_dnn_90_truck_20_n04467665_71055.png
barlow_twins,1,195,NaN,airplane,car,90,0195_rot_dnn_90_car_20_n02814533_23979.png
barlow_twins,1,196,NaN,elephant,elephant,180,0196_rot_dnn_180_elephant_20_n02504458_6805.png
barlow_twins,1,197,NaN,oven,clock,90,0197_rot_dnn_90_clock_20_n04548280_4841.png
barlow_twins,1,198,NaN,oven,boat,90,0198_rot_dnn_90_boat_20_n03662601_6832.png
barlow_twins,1,199,NaN,oven,oven,270,0199_rot_dnn_270_oven_20_n04111531_766.png
barlow_twins,1,200,NaN,oven,clock,0,0200_rot_dnn_0_clock_20_n04548280_1305.png
barlow_twins,1,201,NaN,bottle,bicycle,0,0201_rot_dnn_0_bicycle_20_n03792782_19083.png
barlow_twins,1,202,NaN,oven,bird,90,0202_rot_dnn_90_bird_20_n01860187_20081.png
barlow_twins,1,203,NaN,elephant,oven,0,0203_rot_dnn_0_oven_20_n04111531_4817.png
barlow_twins,1,204,NaN,car,car,180,0204_rot_dnn_180_car_20_n02814533_33360.png
barlow_twins,1,205,NaN,knife,clock,270,0205_rot_dnn_270_clock_20_n04548280_4035.png
barlow_twins,1,206,NaN,airplane,keyboard,270,0206_rot_dnn_270_keyboard_20_n03085013_7879.png
barlow_twins,1,207,NaN,knife,airplane,0,0207_rot_dnn_0_airplane_20_n02690373_2598.png
barlow_twins,1,208,NaN,elephant,cat,180,0208_rot_dnn_180_cat_20_n02123045_436.png
barlow_twins,1,209,NaN,oven,airplane,270,0209_rot_dnn_270_airplane_20_n02690373_813.png
barlow_twins,1,210,NaN,knife,cat,0,0210_rot_dnn_0_cat_20_n02123159_1008.png
barlow_twins,1,211,NaN,elephant,bottle,90,0211_rot_dnn_90_bottle_20_n03983396_5452.png
barlow_twins,1,212,NaN,knife,dog,90,0212_rot_dnn_90_dog_20_n02090379_13010.png
barlow_twins,1,213,NaN,elephant,chair,180,0213_rot_dnn_180_chair_20_n04099969_4162.png
barlow_twins,1,214,NaN,oven,keyboard,270,0214_rot_dnn_270_keyboard_20_n04505470_206.png
barlow_twins,1,215,NaN,oven,cat,0,0215_rot_dnn_0_cat_20_n02123045_5290.png
barlow_twins,1,216,NaN,knife,bird,180,0216_rot_dnn_180_bird_20_n01843383_6001.png
barlow_twins,1,217,NaN,keyboard,knife,0,0217_rot_dnn_0_knife_20_n03041632_24376.png
barlow_twins,1,218,NaN,keyboard,bicycle,90,0218_rot_dnn_90_bicycle_20_n02835271_2915.png
barlow_twins,1,219,NaN,car,bicycle,0,0219_rot_dnn_0_bicycle_20_n03792782_5517.png
barlow_twins,1,220,NaN,car,bicycle,90,0220_rot_dnn_90_bicycle_20_n02835271_7053.png
barlow_twins,1,221,NaN,elephant,clock,180,0221_rot_dnn_180_clock_20_n04548280_7115.png
barlow_twins,1,222,NaN,oven,boat,270,0222_rot_dnn_270_boat_20_n04273569_29866.png
barlow_twins,1,223,NaN,knife,clock,90,0223_rot_dnn_90_clock_20_n02708093_3623.png
barlow_twins,1,224,NaN,airplane,bear,180,0224_rot_dnn_180_bear_20_n02132136_7468.png
barlow_twins,1,225,NaN,cat,cat,0,0225_rot_dnn_0_cat_20_n02123159_2137.png
barlow_twins,1,226,NaN,bicycle,bottle,90,0226_rot_dnn_90_bottle_20_n03937543_5257.png
barlow_twins,1,227,NaN,elephant,cat,0,0227_rot_dnn_0_cat_20_n02123394_937.png
barlow_twins,1,228,NaN,knife,boat,0,0228_rot_dnn_0_boat_20_n03662601_11764.png
barlow_twins,1,229,NaN,bottle,bear,0,0229_rot_dnn_0_bear_20_n02132136_10412.png
barlow_twins,1,230,NaN,oven,clock,270,0230_rot_dnn_270_clock_20_n03196217_3600.png
barlow_twins,1,231,NaN,car,dog,270,0231_rot_dnn_270_dog_20_n02102177_255.png
barlow_twins,1,232,NaN,bear,bird,270,0232_rot_dnn_270_bird_20_n01614925_1860.png
barlow_twins,1,233,NaN,bear,airplane,180,0233_rot_dnn_180_airplane_20_n02690373_1021.png
barlow_twins,1,234,NaN,knife,chair,180,0234_rot_dnn_180_chair_20_n03376595_9079.png
barlow_twins,1,235,NaN,truck,chair,90,0235_rot_dnn_90_chair_20_n02791124_5199.png
barlow_twins,1,236,NaN,bottle,keyboard,90,0236_rot_dnn_90_keyboard_20_n03085013_24294.png
barlow_twins,1,237,NaN,bear,cat,0,0237_rot_dnn_0_cat_20_n02123597_13286.png
barlow_twins,1,238,NaN,elephant,bird,180,0238_rot_dnn_180_bird_20_n01560419_17392.png
barlow_twins,1,239,NaN,knife,oven,270,0239_rot_dnn_270_oven_20_n04111531_6934.png
barlow_twins,1,240,NaN,truck,clock,90,0240_rot_dnn_90_clock_20_n03196217_6707.png
barlow_twins,1,241,NaN,keyboard,knife,180,0241_rot_dnn_180_knife_20_n03041632_15174.png
barlow_twins,1,242,NaN,oven,oven,180,0242_rot_dnn_180_oven_20_n04111531_13644.png
barlow_twins,1,243,NaN,knife,elephant,0,0243_rot_dnn_0_elephant_20_n02504458_3458.png
barlow_twins,1,244,NaN,bottle,clock,90,0244_rot_dnn_90_clock_20_n04548280_18914.png
barlow_twins,1,245,NaN,bottle,dog,180,0245_rot_dnn_180_dog_20_n02107908_2754.png
barlow_twins,1,246,NaN,knife,airplane,0,0246_rot_dnn_0_airplane_20_n02690373_1306.png
barlow_twins,1,247,NaN,elephant,chair,90,0247_rot_dnn_90_chair_20_n03376595_10266.png
barlow_twins,1,248,NaN,airplane,keyboard,270,0248_rot_dnn_270_keyboard_20_n04505470_1416.png
barlow_twins,1,249,NaN,elephant,clock,180,0249_rot_dnn_180_clock_20_n04548280_4686.png
barlow_twins,1,250,NaN,oven,truck,270,0250_rot_dnn_270_truck_20_n04467665_69882.png
barlow_twins,1,251,NaN,truck,bottle,270,0251_rot_dnn_270_bottle_20_n04591713_2123.png
barlow_twins,1,252,NaN,elephant,oven,90,0252_rot_dnn_90_oven_20_n04111531_6933.png
barlow_twins,1,253,NaN,oven,car,270,0253_rot_dnn_270_car_20_n03100240_8898.png
barlow_twins,1,254,NaN,oven,elephant,180,0254_rot_dnn_180_elephant_20_n02504458_5277.png
barlow_twins,1,255,NaN,oven,truck,270,0255_rot_dnn_270_truck_20_n03417042_9967.png
barlow_twins,1,256,NaN,elephant,bear,0,0256_rot_dnn_0_bear_20_n02134418_1017.png
barlow_twins,1,257,NaN,oven,airplane,90,0257_rot_dnn_90_airplane_20_n02690373_1909.png
barlow_twins,1,258,NaN,keyboard,airplane,0,0258_rot_dnn_0_airplane_20_n02690373_6753.png
barlow_twins,1,259,NaN,knife,airplane,0,0259_rot_dnn_0_airplane_20_n02690373_1972.png
barlow_twins,1,260,NaN,oven,oven,90,0260_rot_dnn_90_oven_20_n04111531_9915.png
barlow_twins,1,261,NaN,oven,elephant,270,0261_rot_dnn_270_elephant_20_n02504458_485.png
barlow_twins,1,262,NaN,bottle,elephant,180,0262_rot_dnn_180_elephant_20_n02504013_2431.png
barlow_twins,1,263,NaN,bottle,clock,180,0263_rot_dnn_180_clock_20_n02708093_1038.png
barlow_twins,1,264,NaN,keyboard,cat,270,0264_rot_dnn_270_cat_20_n02123597_5927.png
barlow_twins,1,265,NaN,car,bicycle,90,0265_rot_dnn_90_bicycle_20_n03792782_3202.png
barlow_twins,1,266,NaN,bear,car,270,0266_rot_dnn_270_car_20_n02814533_45480.png
barlow_twins,1,267,NaN,knife,truck,90,0267_rot_dnn_90_truck_20_n03796401_4571.png
barlow_twins,1,268,NaN,oven,oven,90,0268_rot_dnn_90_oven_20_n04111531_21011.png
barlow_twins,1,269,NaN,keyboard,airplane,0,0269_rot_dnn_0_airplane_20_n02690373_4310.png
barlow_twins,1,270,NaN,elephant,oven,0,0270_rot_dnn_0_oven_20_n04111531_7134.png
barlow_twins,1,271,NaN,bear,dog,270,0271_rot_dnn_270_dog_20_n02105251_1092.png
barlow_twins,1,272,NaN,knife,knife,180,0272_rot_dnn_180_knife_20_n03041632_34505.png
barlow_twins,1,273,NaN,oven,keyboard,90,0273_rot_dnn_90_keyboard_20_n04505470_4520.png
barlow_twins,1,274,NaN,knife,boat,180,0274_rot_dnn_180_boat_20_n03344393_1519.png
barlow_twins,1,275,NaN,knife,chair,270,0275_rot_dnn_270_chair_20_n03376595_9535.png
barlow_twins,1,276,NaN,oven,cat,270,0276_rot_dnn_270_cat_20_n02125311_1326.png
barlow_twins,1,277,NaN,knife,cat,90,0277_rot_dnn_90_cat_20_n02123394_2948.png
barlow_twins,1,278,NaN,knife,oven,270,0278_rot_dnn_270_oven_20_n04111531_5429.png
barlow_twins,1,279,NaN,elephant,elephant,0,0279_rot_dnn_0_elephant_20_n02504013_6645.png
barlow_twins,1,280,NaN,airplane,keyboard,90,0280_rot_dnn_90_keyboard_20_n04505470_4159.png
barlow_twins,1,281,NaN,oven,bottle,90,0281_rot_dnn_90_bottle_20_n02823428_6252.png
barlow_twins,1,282,NaN,knife,airplane,180,0282_rot_dnn_180_airplane_20_n02690373_15097.png
barlow_twins,1,283,NaN,elephant,cat,0,0283_rot_dnn_0_cat_20_n02123159_3420.png
barlow_twins,1,284,NaN,oven,cat,0,0284_rot_dnn_0_cat_20_n02124075_7835.png
barlow_twins,1,285,NaN,keyboard,cat,90,0285_rot_dnn_90_cat_20_n02123045_6696.png
barlow_twins,1,286,NaN,knife,boat,180,0286_rot_dnn_180_boat_20_n02951358_34766.png
barlow_twins,1,287,NaN,oven,bird,0,0287_rot_dnn_0_bird_20_n01855672_8191.png
barlow_twins,1,288,NaN,bottle,truck,180,0288_rot_dnn_180_truck_20_n03796401_1150.png
barlow_twins,1,289,NaN,car,bicycle,270,0289_rot_dnn_270_bicycle_20_n03792782_9782.png
barlow_twins,1,290,NaN,keyboard,boat,270,0290_rot_dnn_270_boat_20_n03662601_12969.png
barlow_twins,1,291,NaN,elephant,bottle,180,0291_rot_dnn_180_bottle_20_n02823428_4530.png
barlow_twins,1,292,NaN,oven,chair,0,0292_rot_dnn_0_chair_20_n02791124_2898.png
barlow_twins,1,293,NaN,cat,cat,270,0293_rot_dnn_270_cat_20_n02123394_686.png
barlow_twins,1,294,NaN,elephant,dog,180,0294_rot_dnn_180_dog_20_n02100735_4364.png
barlow_twins,1,295,NaN,knife,dog,0,0295_rot_dnn_0_dog_20_n02102177_7968.png
barlow_twins,1,296,NaN,oven,knife,270,0296_rot_dnn_270_knife_20_n03041632_15099.png
barlow_twins,1,297,NaN,airplane,oven,180,0297_rot_dnn_180_oven_20_n04111531_2937.png
barlow_twins,1,298,NaN,airplane,cat,0,0298_rot_dnn_0_cat_20_n02123394_3695.png
barlow_twins,1,299,NaN,bottle,bear,180,0299_rot_dnn_180_bear_20_n02134084_3696.png
barlow_twins,1,300,NaN,airplane,oven,270,0300_rot_dnn_270_oven_20_n04111531_4671.png
barlow_twins,1,301,NaN,knife,bear,180,0301_rot_dnn_180_bear_20_n02133161_2741.png
barlow_twins,1,302,NaN,oven,boat,90,0302_rot_dnn_90_boat_20_n03662601_3893.png
barlow_twins,1,303,NaN,truck,boat,90,0303_rot_dnn_90_boat_20_n03344393_2790.png
barlow_twins,1,304,NaN,truck,keyboard,180,0304_rot_dnn_180_keyboard_20_n03085013_3920.png
barlow_twins,1,305,NaN,elephant,chair,90,0305_rot_dnn_90_chair_20_n04099969_1962.png
barlow_twins,1,306,NaN,knife,knife,0,0306_rot_dnn_0_knife_20_n03041632_13846.png
barlow_twins,1,307,NaN,bottle,boat,0,0307_rot_dnn_0_boat_20_n02951358_30117.png
barlow_twins,1,308,NaN,elephant,elephant,270,0308_rot_dnn_270_elephant_20_n02504458_9922.png
barlow_twins,1,309,NaN,cat,boat,180,0309_rot_dnn_180_boat_20_n03344393_5609.png
barlow_twins,1,310,NaN,elephant,chair,0,0310_rot_dnn_0_chair_20_n02791124_3180.png
barlow_twins,1,311,NaN,airplane,boat,90,0311_rot_dnn_90_boat_20_n02951358_12532.png
barlow_twins,1,312,NaN,elephant,cat,180,0312_rot_dnn_180_cat_20_n02123597_1901.png
barlow_twins,1,313,NaN,oven,elephant,270,0313_rot_dnn_270_elephant_20_n02504013_5173.png
barlow_twins,1,314,NaN,knife,car,180,0314_rot_dnn_180_car_20_n04285008_4834.png
barlow_twins,1,315,NaN,car,truck,270,0315_rot_dnn_270_truck_20_n03417042_28584.png
barlow_twins,1,316,NaN,knife,dog,180,0316_rot_dnn_180_dog_20_n02093428_11151.png
barlow_twins,1,317,NaN,car,bicycle,90,0317_rot_dnn_90_bicycle_20_n03792782_1475.png
barlow_twins,1,318,NaN,airplane,knife,0,0318_rot_dnn_0_knife_20_n03041632_8666.png
barlow_twins,1,319,NaN,oven,clock,0,0319_rot_dnn_0_clock_20_n04548280_253.png
barlow_twins,1,320,NaN,knife,airplane,180,0320_rot_dnn_180_airplane_20_n02690373_9441.png
barlow_twins,1,321,NaN,knife,airplane,270,0321_rot_dnn_270_airplane_20_n02690373_1946.png
barlow_twins,1,322,NaN,car,car,90,0322_rot_dnn_90_car_20_n03100240_5044.png
barlow_twins,1,323,NaN,knife,dog,270,0323_rot_dnn_270_dog_20_n02111500_6559.png
barlow_twins,1,324,NaN,clock,dog,270,0324_rot_dnn_270_dog_20_n02096051_1852.png
barlow_twins,1,325,NaN,bottle,bear,270,0325_rot_dnn_270_bear_20_n02133161_5020.png
barlow_twins,1,326,NaN,oven,chair,90,0326_rot_dnn_90_chair_20_n02791124_2034.png
barlow_twins,1,327,NaN,elephant,clock,180,0327_rot_dnn_180_clock_20_n03196217_6526.png
barlow_twins,1,328,NaN,knife,oven,180,0328_rot_dnn_180_oven_20_n04111531_9779.png
barlow_twins,1,329,NaN,airplane,boat,0,0329_rot_dnn_0_boat_20_n03662601_28640.png
barlow_twins,1,330,NaN,elephant,knife,90,0330_rot_dnn_90_knife_20_n03041632_31301.png
barlow_twins,1,331,NaN,oven,keyboard,90,0331_rot_dnn_90_keyboard_20_n03085013_9209.png
barlow_twins,1,332,NaN,clock,elephant,90,0332_rot_dnn_90_elephant_20_n02504458_113.png
barlow_twins,1,333,NaN,knife,bicycle,180,0333_rot_dnn_180_bicycle_20_n03792782_6058.png
barlow_twins,1,334,NaN,knife,keyboard,0,0334_rot_dnn_0_keyboard_20_n04505470_4651.png
barlow_twins,1,335,NaN,knife,keyboard,180,0335_rot_dnn_180_keyboard_20_n03085013_7009.png
barlow_twins,1,336,NaN,knife,truck,270,0336_rot_dnn_270_truck_20_n04467665_44390.png
barlow_twins,1,337,NaN,clock,boat,90,0337_rot_dnn_90_boat_20_n04273569_17340.png
barlow_twins,1,338,NaN,elephant,elephant,0,0338_rot_dnn_0_elephant_20_n02504013_1333.png
barlow_twins,1,339,NaN,elephant,knife,270,0339_rot_dnn_270_knife_20_n03041632_50034.png
barlow_twins,1,340,NaN,oven,clock,90,0340_rot_dnn_90_clock_20_n02708093_2740.png
barlow_twins,1,341,NaN,knife,bear,0,0341_rot_dnn_0_bear_20_n02132136_13975.png
barlow_twins,1,342,NaN,knife,elephant,90,0342_rot_dnn_90_elephant_20_n02504013_256.png
barlow_twins,1,343,NaN,oven,boat,90,0343_rot_dnn_90_boat_20_n03344393_6588.png
barlow_twins,1,344,NaN,knife,knife,270,0344_rot_dnn_270_knife_20_n03041632_7173.png
barlow_twins,1,345,NaN,car,elephant,180,0345_rot_dnn_180_elephant_20_n02504458_1041.png
barlow_twins,1,346,NaN,truck,chair,180,0346_rot_dnn_180_chair_20_n04099969_8021.png
barlow_twins,1,347,NaN,knife,truck,0,0347_rot_dnn_0_truck_20_n03796401_1791.png
barlow_twins,1,348,NaN,bottle,keyboard,90,0348_rot_dnn_90_keyboard_20_n04505470_5007.png
barlow_twins,1,349,NaN,knife,truck,180,0349_rot_dnn_180_truck_20_n03417042_29384.png
barlow_twins,1,350,NaN,bear,bird,90,0350_rot_dnn_90_bird_20_n01534433_1271.png
barlow_twins,1,351,NaN,elephant,dog,270,0351_rot_dnn_270_dog_20_n02113624_393.png
barlow_twins,1,352,NaN,oven,cat,90,0352_rot_dnn_90_cat_20_n02123159_5461.png
barlow_twins,1,353,NaN,elephant,knife,270,0353_rot_dnn_270_knife_20_n03041632_9759.png
barlow_twins,1,354,NaN,chair,chair,90,0354_rot_dnn_90_chair_20_n04429376_1754.png
barlow_twins,1,355,NaN,clock,oven,90,0355_rot_dnn_90_oven_20_n04111531_1818.png
barlow_twins,1,356,NaN,oven,clock,0,0356_rot_dnn_0_clock_20_n04548280_5798.png
barlow_twins,1,357,NaN,airplane,oven,90,0357_rot_dnn_90_oven_20_n04111531_3099.png
barlow_twins,1,358,NaN,oven,bottle,270,0358_rot_dnn_270_bottle_20_n04557648_581.png
barlow_twins,1,359,NaN,elephant,bird,0,0359_rot_dnn_0_bird_20_n01531178_3183.png
barlow_twins,1,360,NaN,elephant,airplane,90,0360_rot_dnn_90_airplane_20_n02690373_8872.png
barlow_twins,1,361,NaN,bear,cat,0,0361_rot_dnn_0_cat_20_n02123394_5301.png
barlow_twins,1,362,NaN,chair,bicycle,270,0362_rot_dnn_270_bicycle_20_n03792782_12844.png
barlow_twins,1,363,NaN,knife,bear,90,0363_rot_dnn_90_bear_20_n02132136_2691.png
barlow_twins,1,364,NaN,knife,car,0,0364_rot_dnn_0_car_20_n02814533_27327.png
barlow_twins,1,365,NaN,oven,bird,0,0365_rot_dnn_0_bird_20_n02027492_7653.png
barlow_twins,1,366,NaN,bottle,bear,0,0366_rot_dnn_0_bear_20_n02133161_62.png
barlow_twins,1,367,NaN,elephant,bottle,0,0367_rot_dnn_0_bottle_20_n04560804_9710.png
barlow_twins,1,368,NaN,car,clock,180,0368_rot_dnn_180_clock_20_n04548280_15154.png
barlow_twins,1,369,NaN,airplane,oven,180,0369_rot_dnn_180_oven_20_n04111531_114.png
barlow_twins,1,370,NaN,elephant,cat,180,0370_rot_dnn_180_cat_20_n02125311_24813.png
barlow_twins,1,371,NaN,elephant,airplane,90,0371_rot_dnn_90_airplane_20_n02690373_7647.png
barlow_twins,1,372,NaN,oven,bottle,0,0372_rot_dnn_0_bottle_20_n03983396_9823.png
barlow_twins,1,373,NaN,oven,bear,0,0373_rot_dnn_0_bear_20_n02134418_2398.png
barlow_twins,1,374,NaN,knife,keyboard,90,0374_rot_dnn_90_keyboard_20_n04505470_4584.png
barlow_twins,1,375,NaN,knife,keyboard,0,0375_rot_dnn_0_keyboard_20_n04505470_10055.png
barlow_twins,1,376,NaN,airplane,boat,270,0376_rot_dnn_270_boat_20_n04273569_10980.png
barlow_twins,1,377,NaN,car,car,180,0377_rot_dnn_180_car_20_n03100240_16210.png
barlow_twins,1,378,NaN,oven,keyboard,0,0378_rot_dnn_0_keyboard_20_n04505470_1067.png
barlow_twins,1,379,NaN,airplane,elephant,0,0379_rot_dnn_0_elephant_20_n02504458_7867.png
barlow_twins,1,380,NaN,knife,keyboard,180,0380_rot_dnn_180_keyboard_20_n04505470_807.png
barlow_twins,1,381,NaN,bottle,bicycle,270,0381_rot_dnn_270_bicycle_20_n02835271_24104.png
barlow_twins,1,382,NaN,knife,bottle,0,0382_rot_dnn_0_bottle_20_n03937543_6698.png
barlow_twins,1,383,NaN,knife,oven,0,0383_rot_dnn_0_oven_20_n04111531_10403.png
barlow_twins,1,384,NaN,keyboard,truck,0,0384_rot_dnn_0_truck_20_n03796401_8463.png
barlow_twins,1,385,NaN,knife,truck,0,0385_rot_dnn_0_truck_20_n03796401_8176.png
barlow_twins,1,386,NaN,bicycle,bottle,90,0386_rot_dnn_90_bottle_20_n03937543_984.png
barlow_twins,1,387,NaN,knife,bicycle,90,0387_rot_dnn_90_bicycle_20_n02835271_11697.png
barlow_twins,1,388,NaN,oven,keyboard,270,0388_rot_dnn_270_keyboard_20_n03085013_22417.png
barlow_twins,1,389,NaN,oven,car,270,0389_rot_dnn_270_car_20_n03100240_7602.png
barlow_twins,1,390,NaN,oven,bird,90,0390_rot_dnn_90_bird_20_n01534433_14389.png
barlow_twins,1,391,NaN,knife,bear,0,0391_rot_dnn_0_bear_20_n02134084_2598.png
barlow_twins,1,392,NaN,oven,bird,180,0392_rot_dnn_180_bird_20_n01560419_19599.png
barlow_twins,1,393,NaN,keyboard,bicycle,90,0393_rot_dnn_90_bicycle_20_n02835271_8747.png
barlow_twins,1,394,NaN,oven,knife,180,0394_rot_dnn_180_knife_20_n03041632_30821.png
barlow_twins,1,395,NaN,knife,chair,270,0395_rot_dnn_270_chair_20_n03376595_209.png
barlow_twins,1,396,NaN,bottle,boat,180,0396_rot_dnn_180_boat_20_n04273569_29113.png
barlow_twins,1,397,NaN,knife,bird,270,0397_rot_dnn_270_bird_20_n02006656_6435.png
barlow_twins,1,398,NaN,oven,airplane,90,0398_rot_dnn_90_airplane_20_n02690373_3492.png
barlow_twins,1,399,NaN,oven,oven,270,0399_rot_dnn_270_oven_20_n04111531_9380.png
barlow_twins,1,400,NaN,oven,keyboard,270,0400_rot_dnn_270_keyboard_20_n04505470_510.png
barlow_twins,1,401,NaN,knife,bird,180,0401_rot_dnn_180_bird_20_n02027492_20576.png
barlow_twins,1,402,NaN,bottle,bird,90,0402_rot_dnn_90_bird_20_n01855032_1920.png
barlow_twins,1,403,NaN,truck,boat,180,0403_rot_dnn_180_boat_20_n04273569_15761.png
barlow_twins,1,404,NaN,keyboard,oven,180,0404_rot_dnn_180_oven_20_n04111531_10667.png
barlow_twins,1,405,NaN,clock,knife,270,0405_rot_dnn_270_knife_20_n03041632_36215.png
barlow_twins,1,406,NaN,bottle,bicycle,180,0406_rot_dnn_180_bicycle_20_n02835271_2625.png
barlow_twins,1,407,NaN,oven,bird,270,0407_rot_dnn_270_bird_20_n02028035_20411.png
barlow_twins,1,408,NaN,oven,knife,0,0408_rot_dnn_0_knife_20_n03041632_25656.png
barlow_twins,1,409,NaN,oven,oven,270,0409_rot_dnn_270_oven_20_n04111531_4332.png
barlow_twins,1,410,NaN,knife,keyboard,180,0410_rot_dnn_180_keyboard_20_n04505470_3553.png
barlow_twins,1,411,NaN,bottle,bicycle,180,0411_rot_dnn_180_bicycle_20_n02835271_18706.png
barlow_twins,1,412,NaN,car,truck,270,0412_rot_dnn_270_truck_20_n03417042_10744.png
barlow_twins,1,413,NaN,keyboard,clock,0,0413_rot_dnn_0_clock_20_n03196217_11724.png
barlow_twins,1,414,NaN,keyboard,bicycle,270,0414_rot_dnn_270_bicycle_20_n02835271_14123.png
barlow_twins,1,415,NaN,bottle,bicycle,270,0415_rot_dnn_270_bicycle_20_n02835271_7900.png
barlow_twins,1,416,NaN,oven,truck,270,0416_rot_dnn_270_truck_20_n03417042_2153.png
barlow_twins,1,417,NaN,bear,bicycle,270,0417_rot_dnn_270_bicycle_20_n03792782_10129.png
barlow_twins,1,418,NaN,oven,bird,180,0418_rot_dnn_180_bird_20_n01514859_18430.png
barlow_twins,1,419,NaN,elephant,chair,0,0419_rot_dnn_0_chair_20_n04099969_5010.png
barlow_twins,1,420,NaN,knife,truck,0,0420_rot_dnn_0_truck_20_n03796401_588.png
barlow_twins,1,421,NaN,knife,car,0,0421_rot_dnn_0_car_20_n02814533_486.png
barlow_twins,1,422,NaN,car,elephant,90,0422_rot_dnn_90_elephant_20_n02504013_3540.png
barlow_twins,1,423,NaN,knife,car,180,0423_rot_dnn_180_car_20_n02814533_55715.png
barlow_twins,1,424,NaN,oven,bottle,180,0424_rot_dnn_180_bottle_20_n03983396_10896.png
barlow_twins,1,425,NaN,oven,bottle,90,0425_rot_dnn_90_bottle_20_n04557648_15053.png
barlow_twins,1,426,NaN,bottle,car,0,0426_rot_dnn_0_car_20_n04285008_8281.png
barlow_twins,1,427,NaN,oven,car,270,0427_rot_dnn_270_car_20_n02814533_38596.png
barlow_twins,1,428,NaN,oven,elephant,270,0428_rot_dnn_270_elephant_20_n02504013_15219.png
barlow_twins,1,429,NaN,elephant,elephant,180,0429_rot_dnn_180_elephant_20_n02504013_828.png
barlow_twins,1,430,NaN,knife,oven,180,0430_rot_dnn_180_oven_20_n04111531_1439.png
barlow_twins,1,431,NaN,truck,bottle,90,0431_rot_dnn_90_bottle_20_n03983396_3315.png
barlow_twins,1,432,NaN,oven,airplane,90,0432_rot_dnn_90_airplane_20_n02690373_4024.png
barlow_twins,1,433,NaN,knife,elephant,270,0433_rot_dnn_270_elephant_20_n02504013_10301.png
barlow_twins,1,434,NaN,oven,oven,180,0434_rot_dnn_180_oven_20_n04111531_7067.png
barlow_twins,1,435,NaN,clock,knife,90,0435_rot_dnn_90_knife_20_n03041632_36834.png
barlow_twins,1,436,NaN,knife,car,90,0436_rot_dnn_90_car_20_n02814533_18148.png
barlow_twins,1,437,NaN,airplane,cat,90,0437_rot_dnn_90_cat_20_n02125311_41284.png
barlow_twins,1,438,NaN,bear,bicycle,0,0438_rot_dnn_0_bicycle_20_n02835271_18188.png
barlow_twins,1,439,NaN,knife,bottle,0,0439_rot_dnn_0_bottle_20_n04591713_2903.png
barlow_twins,1,440,NaN,oven,knife,0,0440_rot_dnn_0_knife_20_n03041632_54191.png
barlow_twins,1,441,NaN,elephant,truck,180,0441_rot_dnn_180_truck_20_n03417042_8867.png
barlow_twins,1,442,NaN,elephant,oven,270,0442_rot_dnn_270_oven_20_n04111531_8421.png
barlow_twins,1,443,NaN,airplane,elephant,270,0443_rot_dnn_270_elephant_20_n02504013_4062.png
barlow_twins,1,444,NaN,elephant,keyboard,270,0444_rot_dnn_270_keyboard_20_n04505470_1649.png
barlow_twins,1,445,NaN,knife,boat,180,0445_rot_dnn_180_boat_20_n03344393_7967.png
barlow_twins,1,446,NaN,airplane,bicycle,0,0446_rot_dnn_0_bicycle_20_n02835271_10265.png
barlow_twins,1,447,NaN,keyboard,bicycle,180,0447_rot_dnn_180_bicycle_20_n02835271_6742.png
barlow_twins,1,448,NaN,elephant,cat,180,0448_rot_dnn_180_cat_20_n02123045_3168.png
barlow_twins,1,449,NaN,bottle,car,180,0449_rot_dnn_180_car_20_n03100240_8489.png
barlow_twins,1,450,NaN,oven,oven,270,0450_rot_dnn_270_oven_20_n04111531_1826.png
barlow_twins,1,451,NaN,airplane,dog,180,0451_rot_dnn_180_dog_20_n02104365_1592.png
barlow_twins,1,452,NaN,knife,boat,90,0452_rot_dnn_90_boat_20_n02951358_4343.png
barlow_twins,1,453,NaN,oven,bottle,0,0453_rot_dnn_0_bottle_20_n02823428_4282.png
barlow_twins,1,454,NaN,oven,bird,0,0454_rot_dnn_0_bird_20_n01817953_2043.png
barlow_twins,1,455,NaN,elephant,dog,0,0455_rot_dnn_0_dog_20_n02110958_14369.png
barlow_twins,1,456,NaN,car,dog,270,0456_rot_dnn_270_dog_20_n02108000_1044.png
barlow_twins,1,457,NaN,elephant,dog,270,0457_rot_dnn_270_dog_20_n02087394_1428.png
barlow_twins,1,458,NaN,bottle,airplane,90,0458_rot_dnn_90_airplane_20_n02690373_2856.png
barlow_twins,1,459,NaN,oven,chair,0,0459_rot_dnn_0_chair_20_n03376595_19165.png
barlow_twins,1,460,NaN,elephant,chair,270,0460_rot_dnn_270_chair_20_n04099969_42125.png
barlow_twins,1,461,NaN,knife,bottle,270,0461_rot_dnn_270_bottle_20_n02823428_12656.png
barlow_twins,1,462,NaN,bottle,bicycle,180,0462_rot_dnn_180_bicycle_20_n02835271_5861.png
barlow_twins,1,463,NaN,keyboard,airplane,90,0463_rot_dnn_90_airplane_20_n02690373_19345.png
barlow_twins,1,464,NaN,oven,clock,90,0464_rot_dnn_90_clock_20_n02708093_8069.png
barlow_twins,1,465,NaN,knife,chair,270,0465_rot_dnn_270_chair_20_n04099969_16.png
barlow_twins,1,466,NaN,airplane,dog,270,0466_rot_dnn_270_dog_20_n02104365_1756.png
barlow_twins,1,467,NaN,oven,bird,270,0467_rot_dnn_270_bird_20_n01819313_17231.png
barlow_twins,1,468,NaN,bottle,car,90,0468_rot_dnn_90_car_20_n02814533_34149.png
barlow_twins,1,469,NaN,elephant,knife,0,0469_rot_dnn_0_knife_20_n03041632_26053.png
barlow_twins,1,470,NaN,knife,oven,0,0470_rot_dnn_0_oven_20_n04111531_11287.png
barlow_twins,1,471,NaN,elephant,bottle,0,0471_rot_dnn_0_bottle_20_n03937543_11959.png
barlow_twins,1,472,NaN,knife,airplane,270,0472_rot_dnn_270_airplane_20_n02690373_1348.png
barlow_twins,1,473,NaN,knife,bear,0,0473_rot_dnn_0_bear_20_n02132136_5175.png
barlow_twins,1,474,NaN,bear,keyboard,270,0474_rot_dnn_270_keyboard_20_n03085013_7382.png
barlow_twins,1,475,NaN,bear,dog,270,0475_rot_dnn_270_dog_20_n02109961_4280.png
barlow_twins,1,476,NaN,bottle,truck,90,0476_rot_dnn_90_truck_20_n03417042_1344.png
barlow_twins,1,477,NaN,knife,elephant,0,0477_rot_dnn_0_elephant_20_n02504013_9299.png
barlow_twins,1,478,NaN,oven,bear,0,0478_rot_dnn_0_bear_20_n02134418_5527.png
barlow_twins,1,479,NaN,truck,keyboard,270,0479_rot_dnn_270_keyboard_20_n03085013_23109.png
barlow_twins,1,480,NaN,knife,bear,180,0480_rot_dnn_180_bear_20_n02133161_4393.png
barlow_twins,1,481,NaN,oven,oven,0,0481_rot_dnn_0_oven_20_n04111531_73.png
barlow_twins,1,482,NaN,keyboard,keyboard,0,0482_rot_dnn_0_keyboard_20_n03085013_7613.png
barlow_twins,1,483,NaN,oven,oven,180,0483_rot_dnn_180_oven_20_n04111531_2795.png
barlow_twins,1,484,NaN,oven,oven,0,0484_rot_dnn_0_oven_20_n04111531_22517.png
barlow_twins,1,485,NaN,airplane,elephant,90,0485_rot_dnn_90_elephant_20_n02504458_2613.png
barlow_twins,1,486,NaN,airplane,oven,180,0486_rot_dnn_180_oven_20_n04111531_9176.png
barlow_twins,1,487,NaN,oven,bottle,180,0487_rot_dnn_180_bottle_20_n04557648_5790.png
barlow_twins,1,488,NaN,oven,truck,90,0488_rot_dnn_90_truck_20_n04467665_9812.png
barlow_twins,1,489,NaN,keyboard,bottle,0,0489_rot_dnn_0_bottle_20_n04591713_7476.png
barlow_twins,1,490,NaN,elephant,elephant,90,0490_rot_dnn_90_elephant_20_n02504458_1567.png
barlow_twins,1,491,NaN,oven,clock,90,0491_rot_dnn_90_clock_20_n04548280_6865.png
barlow_twins,1,492,NaN,knife,bottle,180,0492_rot_dnn_180_bottle_20_n02823428_3.png
barlow_twins,1,493,NaN,oven,boat,90,0493_rot_dnn_90_boat_20_n04273569_8951.png
barlow_twins,1,494,NaN,knife,knife,180,0494_rot_dnn_180_knife_20_n03041632_53874.png
barlow_twins,1,495,NaN,car,clock,0,0495_rot_dnn_0_clock_20_n04548280_6126.png
barlow_twins,1,496,NaN,oven,cat,180,0496_rot_dnn_180_cat_20_n02123597_6186.png
barlow_twins,1,497,NaN,keyboard,cat,270,0497_rot_dnn_270_cat_20_n02124075_14662.png
barlow_twins,1,498,NaN,clock,car,90,0498_rot_dnn_90_car_20_n04285008_8677.png
barlow_twins,1,499,NaN,bear,bird,90,0499_rot_dnn_90_bird_20_n01820546_2568.png
barlow_twins,1,500,NaN,bear,clock,90,0500_rot_dnn_90_clock_20_n04548280_7354.png
barlow_twins,1,501,NaN,car,bicycle,270,0501_rot_dnn_270_bicycle_20_n03792782_586.png
barlow_twins,1,502,NaN,bottle,bear,0,0502_rot_dnn_0_bear_20_n02134084_572.png
barlow_twins,1,503,NaN,knife,bicycle,270,0503_rot_dnn_270_bicycle_20_n03792782_3388.png
barlow_twins,1,504,NaN,knife,bicycle,270,0504_rot_dnn_270_bicycle_20_n03792782_28970.png
barlow_twins,1,505,NaN,truck,bottle,270,0505_rot_dnn_270_bottle_20_n04560804_11386.png
barlow_twins,1,506,NaN,knife,chair,180,0506_rot_dnn_180_chair_20_n03376595_6799.png
barlow_twins,1,507,NaN,knife,dog,270,0507_rot_dnn_270_dog_20_n02094258_6398.png
barlow_twins,1,508,NaN,oven,bird,0,0508_rot_dnn_0_bird_20_n01592084_2639.png
barlow_twins,1,509,NaN,knife,bird,180,0509_rot_dnn_180_bird_20_n02017213_4781.png
barlow_twins,1,510,NaN,bottle,airplane,270,0510_rot_dnn_270_airplane_20_n02690373_3818.png
barlow_twins,1,511,NaN,chair,bicycle,90,0511_rot_dnn_90_bicycle_20_n03792782_26383.png
barlow_twins,1,512,NaN,oven,oven,90,0512_rot_dnn_90_oven_20_n04111531_5216.png
barlow_twins,1,513,NaN,knife,airplane,180,0513_rot_dnn_180_airplane_20_n02690373_20331.png
barlow_twins,1,514,NaN,cat,truck,180,0514_rot_dnn_180_truck_20_n04467665_23691.png
barlow_twins,1,515,NaN,oven,bird,0,0515_rot_dnn_0_bird_20_n02009229_492.png
barlow_twins,1,516,NaN,oven,bird,90,0516_rot_dnn_90_bird_20_n02002556_5890.png
barlow_twins,1,517,NaN,knife,bird,270,0517_rot_dnn_270_bird_20_n01855032_5358.png
barlow_twins,1,518,NaN,knife,dog,180,0518_rot_dnn_180_dog_20_n02112350_10026.png
barlow_twins,1,519,NaN,oven,knife,90,0519_rot_dnn_90_knife_20_n03041632_11773.png
barlow_twins,1,520,NaN,bear,elephant,0,0520_rot_dnn_0_elephant_20_n02504013_20486.png
barlow_twins,1,521,NaN,knife,oven,0,0521_rot_dnn_0_oven_20_n04111531_27.png
barlow_twins,1,522,NaN,oven,bird,180,0522_rot_dnn_180_bird_20_n01855672_15421.png
barlow_twins,1,523,NaN,car,bear,270,0523_rot_dnn_270_bear_20_n02132136_239.png
barlow_twins,1,524,NaN,oven,keyboard,90,0524_rot_dnn_90_keyboard_20_n03085013_25924.png
barlow_twins,1,525,NaN,keyboard,bicycle,180,0525_rot_dnn_180_bicycle_20_n03792782_6030.png
barlow_twins,1,526,NaN,oven,bottle,270,0526_rot_dnn_270_bottle_20_n03983396_5497.png
barlow_twins,1,527,NaN,oven,chair,180,0527_rot_dnn_180_chair_20_n04429376_6390.png
barlow_twins,1,528,NaN,bear,dog,90,0528_rot_dnn_90_dog_20_n02100877_11159.png
barlow_twins,1,529,NaN,oven,bottle,180,0529_rot_dnn_180_bottle_20_n04579145_579.png
barlow_twins,1,530,NaN,elephant,cat,90,0530_rot_dnn_90_cat_20_n02123159_5678.png
barlow_twins,1,531,NaN,oven,elephant,180,0531_rot_dnn_180_elephant_20_n02504013_13283.png
barlow_twins,1,532,NaN,bear,dog,90,0532_rot_dnn_90_dog_20_n02095570_7633.png
barlow_twins,1,533,NaN,elephant,clock,180,0533_rot_dnn_180_clock_20_n02708093_8311.png
barlow_twins,1,534,NaN,keyboard,chair,270,0534_rot_dnn_270_chair_20_n03376595_426.png
barlow_twins,1,535,NaN,knife,dog,180,0535_rot_dnn_180_dog_20_n02100877_3112.png
barlow_twins,1,536,NaN,oven,car,270,0536_rot_dnn_270_car_20_n02814533_458.png
barlow_twins,1,537,NaN,bear,bird,0,0537_rot_dnn_0_bird_20_n02006656_5079.png
barlow_twins,1,538,NaN,oven,boat,90,0538_rot_dnn_90_boat_20_n04273569_12725.png
barlow_twins,1,539,NaN,oven,cat,270,0539_rot_dnn_270_cat_20_n02123045_6677.png
barlow_twins,1,540,NaN,car,bicycle,270,0540_rot_dnn_270_bicycle_20_n02835271_4440.png
barlow_twins,1,541,NaN,knife,keyboard,270,0541_rot_dnn_270_keyboard_20_n03085013_21444.png
barlow_twins,1,542,NaN,oven,clock,180,0542_rot_dnn_180_clock_20_n02708093_8255.png
barlow_twins,1,543,NaN,chair,bicycle,0,0543_rot_dnn_0_bicycle_20_n02835271_30318.png
barlow_twins,1,544,NaN,bear,cat,180,0544_rot_dnn_180_cat_20_n02123394_2059.png
barlow_twins,1,545,NaN,knife,elephant,180,0545_rot_dnn_180_elephant_20_n02504013_6618.png
barlow_twins,1,546,NaN,bear,cat,270,0546_rot_dnn_270_cat_20_n02124075_8889.png
barlow_twins,1,547,NaN,clock,dog,90,0547_rot_dnn_90_dog_20_n02100877_7302.png
barlow_twins,1,548,NaN,knife,car,180,0548_rot_dnn_180_car_20_n02814533_85971.png
barlow_twins,1,549,NaN,oven,chair,0,0549_rot_dnn_0_chair_20_n03376595_5909.png
barlow_twins,1,550,NaN,knife,keyboard,270,0550_rot_dnn_270_keyboard_20_n03085013_13083.png
barlow_twins,1,551,NaN,truck,oven,90,0551_rot_dnn_90_oven_20_n04111531_9611.png
barlow_twins,1,552,NaN,knife,boat,0,0552_rot_dnn_0_boat_20_n02951358_13996.png
barlow_twins,1,553,NaN,car,boat,0,0553_rot_dnn_0_boat_20_n03344393_9251.png
barlow_twins,1,554,NaN,elephant,airplane,180,0554_rot_dnn_180_airplane_20_n02690373_9175.png
barlow_twins,1,555,NaN,oven,bear,0,0555_rot_dnn_0_bear_20_n02132136_2791.png
barlow_twins,1,556,NaN,bear,elephant,180,0556_rot_dnn_180_elephant_20_n02504458_193.png
barlow_twins,1,557,NaN,oven,bird,270,0557_rot_dnn_270_bird_20_n01843383_9985.png
barlow_twins,1,558,NaN,oven,bird,270,0558_rot_dnn_270_bird_20_n02028035_10744.png
barlow_twins,1,559,NaN,oven,truck,270,0559_rot_dnn_270_truck_20_n04467665_3720.png
barlow_twins,1,560,NaN,knife,car,0,0560_rot_dnn_0_car_20_n02814533_52605.png
barlow_twins,1,561,NaN,elephant,clock,90,0561_rot_dnn_90_clock_20_n04548280_5631.png
barlow_twins,1,562,NaN,oven,oven,0,0562_rot_dnn_0_oven_20_n04111531_1922.png
barlow_twins,1,563,NaN,cat,boat,180,0563_rot_dnn_180_boat_20_n03662601_1197.png
barlow_twins,1,564,NaN,clock,clock,270,0564_rot_dnn_270_clock_20_n02708093_1862.png
barlow_twins,1,565,NaN,oven,truck,180,0565_rot_dnn_180_truck_20_n03796401_4582.png
barlow_twins,1,566,NaN,clock,elephant,90,0566_rot_dnn_90_elephant_20_n02504013_565.png
barlow_twins,1,567,NaN,car,truck,180,0567_rot_dnn_180_truck_20_n04467665_49826.png
barlow_twins,1,568,NaN,elephant,bear,270,0568_rot_dnn_270_bear_20_n02134418_5067.png
barlow_twins,1,569,NaN,car,chair,90,0569_rot_dnn_90_chair_20_n04429376_29223.png
barlow_twins,1,570,NaN,car,airplane,270,0570_rot_dnn_270_airplane_20_n02690373_5909.png
barlow_twins,1,571,NaN,elephant,dog,270,0571_rot_dnn_270_dog_20_n02097658_722.png
barlow_twins,1,572,NaN,airplane,oven,0,0572_rot_dnn_0_oven_20_n04111531_10339.png
barlow_twins,1,573,NaN,oven,truck,90,0573_rot_dnn_90_truck_20_n03417042_28078.png
barlow_twins,1,574,NaN,knife,chair,180,0574_rot_dnn_180_chair_20_n04099969_22118.png
barlow_twins,1,575,NaN,truck,clock,270,0575_rot_dnn_270_clock_20_n04548280_7978.png
barlow_twins,1,576,NaN,clock,bear,180,0576_rot_dnn_180_bear_20_n02133161_1962.png
barlow_twins,1,577,NaN,bear,clock,180,0577_rot_dnn_180_clock_20_n04548280_13750.png
barlow_twins,1,578,NaN,oven,keyboard,0,0578_rot_dnn_0_keyboard_20_n03085013_15249.png
barlow_twins,1,579,NaN,oven,car,90,0579_rot_dnn_90_car_20_n02814533_479.png
barlow_twins,1,580,NaN,clock,keyboard,270,0580_rot_dnn_270_keyboard_20_n03085013_20716.png
barlow_twins,1,581,NaN,oven,bird,180,0581_rot_dnn_180_bird_20_n01530575_7990.png
barlow_twins,1,582,NaN,elephant,chair,0,0582_rot_dnn_0_chair_20_n04429376_17343.png
barlow_twins,1,583,NaN,airplane,chair,90,0583_rot_dnn_90_chair_20_n02791124_8775.png
barlow_twins,1,584,NaN,knife,cat,90,0584_rot_dnn_90_cat_20_n02125311_2959.png
barlow_twins,1,585,NaN,elephant,oven,180,0585_rot_dnn_180_oven_20_n04111531_13906.png
barlow_twins,1,586,NaN,elephant,airplane,90,0586_rot_dnn_90_airplane_20_n02690373_7293.png
barlow_twins,1,587,NaN,oven,chair,180,0587_rot_dnn_180_chair_20_n04099969_10825.png
barlow_twins,1,588,NaN,bottle,airplane,180,0588_rot_dnn_180_airplane_20_n02690373_17044.png
barlow_twins,1,589,NaN,oven,bird,0,0589_rot_dnn_0_bird_20_n01797886_6169.png
barlow_twins,1,590,NaN,oven,oven,0,0590_rot_dnn_0_oven_20_n04111531_13255.png
barlow_twins,1,591,NaN,bear,knife,270,0591_rot_dnn_270_knife_20_n03041632_17820.png
barlow_twins,1,592,NaN,car,bicycle,270,0592_rot_dnn_270_bicycle_20_n02835271_21640.png
barlow_twins,1,593,NaN,chair,bear,0,0593_rot_dnn_0_bear_20_n02134418_517.png
barlow_twins,1,594,NaN,knife,airplane,180,0594_rot_dnn_180_airplane_20_n02690373_4588.png
barlow_twins,1,595,NaN,elephant,bottle,270,0595_rot_dnn_270_bottle_20_n02823428_12190.png
barlow_twins,1,596,NaN,oven,bottle,0,0596_rot_dnn_0_bottle_20_n04591713_1717.png
barlow_twins,1,597,NaN,elephant,knife,0,0597_rot_dnn_0_knife_20_n03041632_9488.png
barlow_twins,1,598,NaN,elephant,truck,90,0598_rot_dnn_90_truck_20_n03417042_11166.png
barlow_twins,1,599,NaN,knife,elephant,90,0599_rot_dnn_90_elephant_20_n02504458_585.png
barlow_twins,1,600,NaN,knife,keyboard,0,0600_rot_dnn_0_keyboard_20_n04505470_5046.png
barlow_twins,1,601,NaN,bottle,chair,180,0601_rot_dnn_180_chair_20_n03376595_4937.png
barlow_twins,1,602,NaN,oven,boat,180,0602_rot_dnn_180_boat_20_n03662601_1740.png
barlow_twins,1,603,NaN,cat,knife,0,0603_rot_dnn_0_knife_20_n03041632_4037.png
barlow_twins,1,604,NaN,oven,boat,0,0604_rot_dnn_0_boat_20_n04273569_1538.png
barlow_twins,1,605,NaN,knife,bird,0,0605_rot_dnn_0_bird_20_n02017213_15918.png
barlow_twins,1,606,NaN,knife,keyboard,0,0606_rot_dnn_0_keyboard_20_n03085013_10463.png
barlow_twins,1,607,NaN,oven,bear,270,0607_rot_dnn_270_bear_20_n02133161_7939.png
barlow_twins,1,608,NaN,oven,car,270,0608_rot_dnn_270_car_20_n04285008_11704.png
barlow_twins,1,609,NaN,knife,truck,90,0609_rot_dnn_90_truck_20_n03796401_16046.png
barlow_twins,1,610,NaN,truck,chair,270,0610_rot_dnn_270_chair_20_n02791124_3710.png
barlow_twins,1,611,NaN,knife,keyboard,180,0611_rot_dnn_180_keyboard_20_n04505470_3566.png
barlow_twins,1,612,NaN,oven,bird,90,0612_rot_dnn_90_bird_20_n02037110_8716.png
barlow_twins,1,613,NaN,keyboard,car,0,0613_rot_dnn_0_car_20_n03100240_19550.png
barlow_twins,1,614,NaN,knife,airplane,270,0614_rot_dnn_270_airplane_20_n02690373_10769.png
barlow_twins,1,615,NaN,knife,bicycle,0,0615_rot_dnn_0_bicycle_20_n03792782_3456.png
barlow_twins,1,616,NaN,bicycle,chair,0,0616_rot_dnn_0_chair_20_n03376595_2368.png
barlow_twins,1,617,NaN,airplane,dog,0,0617_rot_dnn_0_dog_20_n02091467_2974.png
barlow_twins,1,618,NaN,elephant,knife,180,0618_rot_dnn_180_knife_20_n03041632_43634.png
barlow_twins,1,619,NaN,oven,keyboard,180,0619_rot_dnn_180_keyboard_20_n04505470_4477.png
barlow_twins,1,620,NaN,chair,boat,90,0620_rot_dnn_90_boat_20_n03344393_4773.png
barlow_twins,1,621,NaN,car,airplane,180,0621_rot_dnn_180_airplane_20_n02690373_139.png
barlow_twins,1,622,NaN,oven,knife,270,0622_rot_dnn_270_knife_20_n03041632_737.png
barlow_twins,1,623,NaN,airplane,chair,270,0623_rot_dnn_270_chair_20_n02791124_2698.png
barlow_twins,1,624,NaN,oven,truck,270,0624_rot_dnn_270_truck_20_n03417042_5301.png
barlow_twins,1,625,NaN,knife,bird,0,0625_rot_dnn_0_bird_20_n02006656_5757.png
barlow_twins,1,626,NaN,elephant,bear,270,0626_rot_dnn_270_bear_20_n02132136_15174.png
barlow_twins,1,627,NaN,oven,bottle,270,0627_rot_dnn_270_bottle_20_n04560804_6329.png
barlow_twins,1,628,NaN,oven,truck,0,0628_rot_dnn_0_truck_20_n03417042_22196.png
barlow_twins,1,629,NaN,car,cat,0,0629_rot_dnn_0_cat_20_n02125311_18366.png
barlow_twins,1,630,NaN,bicycle,chair,0,0630_rot_dnn_0_chair_20_n02791124_12707.png
barlow_twins,1,631,NaN,airplane,oven,180,0631_rot_dnn_180_oven_20_n04111531_1938.png
barlow_twins,1,632,NaN,oven,airplane,270,0632_rot_dnn_270_airplane_20_n02690373_9346.png
barlow_twins,1,633,NaN,oven,cat,0,0633_rot_dnn_0_cat_20_n02123045_10433.png
barlow_twins,1,634,NaN,knife,airplane,180,0634_rot_dnn_180_airplane_20_n02690373_5055.png
barlow_twins,1,635,NaN,chair,clock,270,0635_rot_dnn_270_clock_20_n04548280_4198.png
barlow_twins,1,636,NaN,chair,bicycle,90,0636_rot_dnn_90_bicycle_20_n03792782_12010.png
barlow_twins,1,637,NaN,keyboard,cat,180,0637_rot_dnn_180_cat_20_n02125311_24586.png
barlow_twins,1,638,NaN,oven,chair,0,0638_rot_dnn_0_chair_20_n02791124_3220.png
barlow_twins,1,639,NaN,oven,car,90,0639_rot_dnn_90_car_20_n04285008_12737.png
barlow_twins,1,640,NaN,bottle,chair,180,0640_rot_dnn_180_chair_20_n04429376_4296.png
barlow_twins,1,641,NaN,oven,airplane,90,0641_rot_dnn_90_airplane_20_n02690373_5534.png
barlow_twins,1,642,NaN,elephant,dog,180,0642_rot_dnn_180_dog_20_n02113978_2286.png
barlow_twins,1,643,NaN,elephant,dog,0,0643_rot_dnn_0_dog_20_n02087394_3354.png
barlow_twins,1,644,NaN,bottle,chair,180,0644_rot_dnn_180_chair_20_n03376595_2103.png
barlow_twins,1,645,NaN,knife,elephant,0,0645_rot_dnn_0_elephant_20_n02504458_5181.png
barlow_twins,1,646,NaN,keyboard,chair,270,0646_rot_dnn_270_chair_20_n02791124_10287.png
barlow_twins,1,647,NaN,elephant,oven,90,0647_rot_dnn_90_oven_20_n04111531_22291.png
barlow_twins,1,648,NaN,elephant,bottle,90,0648_rot_dnn_90_bottle_20_n03937543_4399.png
barlow_twins,1,649,NaN,oven,truck,90,0649_rot_dnn_90_truck_20_n03796401_13226.png
barlow_twins,1,650,NaN,oven,airplane,270,0650_rot_dnn_270_airplane_20_n02690373_5430.png
barlow_twins,1,651,NaN,cat,cat,90,0651_rot_dnn_90_cat_20_n02124075_20.png
barlow_twins,1,652,NaN,oven,keyboard,90,0652_rot_dnn_90_keyboard_20_n04505470_4943.png
barlow_twins,1,653,NaN,oven,car,180,0653_rot_dnn_180_car_20_n03100240_4288.png
barlow_twins,1,654,NaN,oven,dog,0,0654_rot_dnn_0_dog_20_n02109525_7478.png
barlow_twins,1,655,NaN,car,bicycle,0,0655_rot_dnn_0_bicycle_20_n03792782_4895.png
barlow_twins,1,656,NaN,airplane,oven,0,0656_rot_dnn_0_oven_20_n04111531_8077.png
barlow_twins,1,657,NaN,oven,airplane,90,0657_rot_dnn_90_airplane_20_n02690373_4845.png
barlow_twins,1,658,NaN,elephant,cat,90,0658_rot_dnn_90_cat_20_n02125311_59332.png
barlow_twins,1,659,NaN,knife,bicycle,180,0659_rot_dnn_180_bicycle_20_n02835271_24.png
barlow_twins,1,660,NaN,oven,truck,180,0660_rot_dnn_180_truck_20_n04467665_22637.png
barlow_twins,1,661,NaN,knife,dog,180,0661_rot_dnn_180_dog_20_n02101006_6694.png
barlow_twins,1,662,NaN,keyboard,car,0,0662_rot_dnn_0_car_20_n02814533_37256.png
barlow_twins,1,663,NaN,knife,bear,0,0663_rot_dnn_0_bear_20_n02134418_132.png
barlow_twins,1,664,NaN,elephant,knife,180,0664_rot_dnn_180_knife_20_n03041632_41310.png
barlow_twins,1,665,NaN,oven,bird,0,0665_rot_dnn_0_bird_20_n01530575_3198.png
barlow_twins,1,666,NaN,bottle,bicycle,180,0666_rot_dnn_180_bicycle_20_n02835271_3643.png
barlow_twins,1,667,NaN,knife,chair,180,0667_rot_dnn_180_chair_20_n02791124_3186.png
barlow_twins,1,668,NaN,knife,chair,270,0668_rot_dnn_270_chair_20_n04099969_5396.png
barlow_twins,1,669,NaN,clock,dog,0,0669_rot_dnn_0_dog_20_n02110806_749.png
barlow_twins,1,670,NaN,car,car,180,0670_rot_dnn_180_car_20_n04285008_7155.png
barlow_twins,1,671,NaN,knife,airplane,270,0671_rot_dnn_270_airplane_20_n02690373_6621.png
barlow_twins,1,672,NaN,oven,cat,270,0672_rot_dnn_270_cat_20_n02124075_11727.png
barlow_twins,1,673,NaN,car,elephant,180,0673_rot_dnn_180_elephant_20_n02504013_1078.png
barlow_twins,1,674,NaN,elephant,knife,180,0674_rot_dnn_180_knife_20_n03041632_21017.png
barlow_twins,1,675,NaN,airplane,knife,180,0675_rot_dnn_180_knife_20_n03041632_22330.png
barlow_twins,1,676,NaN,oven,clock,270,0676_rot_dnn_270_clock_20_n03196217_368.png
barlow_twins,1,677,NaN,airplane,knife,0,0677_rot_dnn_0_knife_20_n03041632_99912.png
barlow_twins,1,678,NaN,truck,boat,180,0678_rot_dnn_180_boat_20_n03344393_7705.png
barlow_twins,1,679,NaN,elephant,bear,180,0679_rot_dnn_180_bear_20_n02134084_41588.png
barlow_twins,1,680,NaN,knife,knife,0,0680_rot_dnn_0_knife_20_n03041632_45775.png
barlow_twins,1,681,NaN,keyboard,bicycle,180,0681_rot_dnn_180_bicycle_20_n02835271_24630.png
barlow_twins,1,682,NaN,clock,boat,270,0682_rot_dnn_270_boat_20_n03662601_22973.png
barlow_twins,1,683,NaN,bottle,car,270,0683_rot_dnn_270_car_20_n02814533_8042.png
barlow_twins,1,684,NaN,car,boat,0,0684_rot_dnn_0_boat_20_n03662601_17483.png
barlow_twins,1,685,NaN,oven,bicycle,180,0685_rot_dnn_180_bicycle_20_n03792782_13680.png
barlow_twins,1,686,NaN,knife,chair,180,0686_rot_dnn_180_chair_20_n03376595_15468.png
barlow_twins,1,687,NaN,keyboard,knife,270,0687_rot_dnn_270_knife_20_n03041632_26236.png
barlow_twins,1,688,NaN,oven,cat,180,0688_rot_dnn_180_cat_20_n02125311_41650.png
barlow_twins,1,689,NaN,bottle,car,90,0689_rot_dnn_90_car_20_n02814533_5916.png
barlow_twins,1,690,NaN,keyboard,knife,180,0690_rot_dnn_180_knife_20_n03041632_7116.png
barlow_twins,1,691,NaN,elephant,bottle,90,0691_rot_dnn_90_bottle_20_n04560804_13583.png
barlow_twins,1,692,NaN,car,bicycle,180,0692_rot_dnn_180_bicycle_20_n02835271_10933.png
barlow_twins,1,693,NaN,knife,truck,180,0693_rot_dnn_180_truck_20_n04467665_9589.png
barlow_twins,1,694,NaN,bottle,car,180,0694_rot_dnn_180_car_20_n03100240_1750.png
barlow_twins,1,695,NaN,knife,bear,270,0695_rot_dnn_270_bear_20_n02134418_1094.png
barlow_twins,1,696,NaN,oven,clock,0,0696_rot_dnn_0_clock_20_n04548280_7792.png
barlow_twins,1,697,NaN,knife,airplane,0,0697_rot_dnn_0_airplane_20_n02690373_7142.png
barlow_twins,1,698,NaN,knife,keyboard,0,0698_rot_dnn_0_keyboard_20_n04505470_7312.png
barlow_twins,1,699,NaN,elephant,bear,90,0699_rot_dnn_90_bear_20_n02132136_18953.png
barlow_twins,1,700,NaN,oven,bird,270,0700_rot_dnn_270_bird_20_n02056570_9303.png
barlow_twins,1,701,NaN,oven,chair,0,0701_rot_dnn_0_chair_20_n02791124_4956.png
barlow_twins,1,702,NaN,bottle,dog,0,0702_rot_dnn_0_dog_20_n02087394_9061.png
barlow_twins,1,703,NaN,knife,bird,270,0703_rot_dnn_270_bird_20_n02025239_13707.png
barlow_twins,1,704,NaN,oven,knife,270,0704_rot_dnn_270_knife_20_n03041632_14916.png
barlow_twins,1,705,NaN,truck,chair,180,0705_rot_dnn_180_chair_20_n02791124_1287.png
barlow_twins,1,706,NaN,elephant,bear,180,0706_rot_dnn_180_bear_20_n02134418_1825.png
barlow_twins,1,707,NaN,knife,elephant,0,0707_rot_dnn_0_elephant_20_n02504013_6999.png
barlow_twins,1,708,NaN,oven,clock,270,0708_rot_dnn_270_clock_20_n04548280_7050.png
barlow_twins,1,709,NaN,elephant,cat,180,0709_rot_dnn_180_cat_20_n02123394_8100.png
barlow_twins,1,710,NaN,car,oven,180,0710_rot_dnn_180_oven_20_n04111531_11026.png
barlow_twins,1,711,NaN,knife,car,0,0711_rot_dnn_0_car_20_n02814533_79974.png
barlow_twins,1,712,NaN,car,chair,0,0712_rot_dnn_0_chair_20_n04429376_10994.png
barlow_twins,1,713,NaN,bear,boat,90,0713_rot_dnn_90_boat_20_n02951358_582.png
barlow_twins,1,714,NaN,airplane,keyboard,270,0714_rot_dnn_270_keyboard_20_n03085013_24385.png
barlow_twins,1,715,NaN,bottle,bear,0,0715_rot_dnn_0_bear_20_n02133161_4218.png
barlow_twins,1,716,NaN,knife,keyboard,270,0716_rot_dnn_270_keyboard_20_n03085013_1070.png
barlow_twins,1,717,NaN,clock,bicycle,180,0717_rot_dnn_180_bicycle_20_n02835271_2131.png
barlow_twins,1,718,NaN,clock,oven,90,0718_rot_dnn_90_oven_20_n04111531_8988.png
barlow_twins,1,719,NaN,oven,elephant,90,0719_rot_dnn_90_elephant_20_n02504458_3608.png
barlow_twins,1,720,NaN,chair,boat,270,0720_rot_dnn_270_boat_20_n03344393_2961.png
barlow_twins,1,721,NaN,oven,oven,90,0721_rot_dnn_90_oven_20_n04111531_12980.png
barlow_twins,1,722,NaN,knife,airplane,180,0722_rot_dnn_180_airplane_20_n02690373_7046.png
barlow_twins,1,723,NaN,oven,bottle,0,0723_rot_dnn_0_bottle_20_n03937543_1929.png
barlow_twins,1,724,NaN,bottle,dog,90,0724_rot_dnn_90_dog_20_n02087394_7707.png
barlow_twins,1,725,NaN,oven,chair,180,0725_rot_dnn_180_chair_20_n03376595_9219.png
barlow_twins,1,726,NaN,knife,airplane,180,0726_rot_dnn_180_airplane_20_n02690373_5838.png
barlow_twins,1,727,NaN,car,chair,0,0727_rot_dnn_0_chair_20_n04099969_16669.png
barlow_twins,1,728,NaN,oven,bird,180,0728_rot_dnn_180_bird_20_n01532829_37796.png
barlow_twins,1,729,NaN,knife,airplane,180,0729_rot_dnn_180_airplane_20_n02690373_6602.png
barlow_twins,1,730,NaN,oven,bear,180,0730_rot_dnn_180_bear_20_n02134418_200.png
barlow_twins,1,731,NaN,knife,car,0,0731_rot_dnn_0_car_20_n03100240_16084.png
barlow_twins,1,732,NaN,oven,bear,270,0732_rot_dnn_270_bear_20_n02134084_18952.png
barlow_twins,1,733,NaN,elephant,boat,90,0733_rot_dnn_90_boat_20_n04273569_1050.png
barlow_twins,1,734,NaN,knife,dog,0,0734_rot_dnn_0_dog_20_n02092339_659.png
barlow_twins,1,735,NaN,oven,elephant,0,0735_rot_dnn_0_elephant_20_n02504458_493.png
barlow_twins,1,736,NaN,truck,truck,90,0736_rot_dnn_90_truck_20_n03417042_9238.png
barlow_twins,1,737,NaN,oven,truck,90,0737_rot_dnn_90_truck_20_n04467665_8303.png
barlow_twins,1,738,NaN,knife,cat,270,0738_rot_dnn_270_cat_20_n02123394_6969.png
barlow_twins,1,739,NaN,knife,bottle,90,0739_rot_dnn_90_bottle_20_n03983396_618.png
barlow_twins,1,740,NaN,elephant,elephant,0,0740_rot_dnn_0_elephant_20_n02504458_8621.png
barlow_twins,1,741,NaN,keyboard,bicycle,90,0741_rot_dnn_90_bicycle_20_n02835271_3308.png
barlow_twins,1,742,NaN,clock,bird,90,0742_rot_dnn_90_bird_20_n02025239_17065.png
barlow_twins,1,743,NaN,car,clock,0,0743_rot_dnn_0_clock_20_n04548280_4582.png
barlow_twins,1,744,NaN,oven,keyboard,180,0744_rot_dnn_180_keyboard_20_n04505470_933.png
barlow_twins,1,745,NaN,elephant,cat,270,0745_rot_dnn_270_cat_20_n02123597_2549.png
barlow_twins,1,746,NaN,bear,boat,90,0746_rot_dnn_90_boat_20_n04612504_30766.png
barlow_twins,1,747,NaN,car,airplane,90,0747_rot_dnn_90_airplane_20_n02690373_4695.png
barlow_twins,1,748,NaN,clock,oven,0,0748_rot_dnn_0_oven_20_n04111531_18648.png
barlow_twins,1,749,NaN,bottle,bicycle,180,0749_rot_dnn_180_bicycle_20_n02835271_14862.png
barlow_twins,1,750,NaN,oven,knife,180,0750_rot_dnn_180_knife_20_n03041632_101810.png
barlow_twins,1,751,NaN,clock,keyboard,0,0751_rot_dnn_0_keyboard_20_n03085013_3795.png
barlow_twins,1,752,NaN,car,clock,90,0752_rot_dnn_90_clock_20_n03196217_1458.png
barlow_twins,1,753,NaN,elephant,bear,180,0753_rot_dnn_180_bear_20_n02134418_4458.png
barlow_twins,1,754,NaN,knife,cat,180,0754_rot_dnn_180_cat_20_n02123045_11545.png
barlow_twins,1,755,NaN,cat,bird,270,0755_rot_dnn_270_bird_20_n01592084_8100.png
barlow_twins,1,756,NaN,car,car,270,0756_rot_dnn_270_car_20_n04285008_12504.png
barlow_twins,1,757,NaN,car,bear,180,0757_rot_dnn_180_bear_20_n02133161_5235.png
barlow_twins,1,758,NaN,airplane,cat,270,0758_rot_dnn_270_cat_20_n02125311_33586.png
barlow_twins,1,759,NaN,bicycle,bird,180,0759_rot_dnn_180_bird_20_n01820546_1089.png
barlow_twins,1,760,NaN,oven,knife,270,0760_rot_dnn_270_knife_20_n03041632_18995.png
barlow_twins,1,761,NaN,airplane,bottle,90,0761_rot_dnn_90_bottle_20_n02823428_4299.png
barlow_twins,1,762,NaN,oven,cat,90,0762_rot_dnn_90_cat_20_n02123045_7294.png
barlow_twins,1,763,NaN,bottle,truck,180,0763_rot_dnn_180_truck_20_n03796401_6315.png
barlow_twins,1,764,NaN,clock,knife,90,0764_rot_dnn_90_knife_20_n03041632_30248.png
barlow_twins,1,765,NaN,elephant,clock,270,0765_rot_dnn_270_clock_20_n02708093_1981.png
barlow_twins,1,766,NaN,knife,bird,180,0766_rot_dnn_180_bird_20_n02002724_6462.png
barlow_twins,1,767,NaN,elephant,chair,90,0767_rot_dnn_90_chair_20_n04099969_48945.png
barlow_twins,1,768,NaN,oven,clock,270,0768_rot_dnn_270_clock_20_n03196217_2291.png
barlow_twins,1,769,NaN,oven,bottle,90,0769_rot_dnn_90_bottle_20_n03937543_4830.png
barlow_twins,1,770,NaN,elephant,bear,180,0770_rot_dnn_180_bear_20_n02134418_5260.png
barlow_twins,1,771,NaN,oven,keyboard,90,0771_rot_dnn_90_keyboard_20_n04505470_4047.png
barlow_twins,1,772,NaN,car,bird,270,0772_rot_dnn_270_bird_20_n01531178_4324.png
barlow_twins,1,773,NaN,elephant,knife,90,0773_rot_dnn_90_knife_20_n03041632_4806.png
barlow_twins,1,774,NaN,chair,bottle,270,0774_rot_dnn_270_bottle_20_n04557648_4727.png
barlow_twins,1,775,NaN,oven,dog,270,0775_rot_dnn_270_dog_20_n02092002_5845.png
barlow_twins,1,776,NaN,elephant,knife,180,0776_rot_dnn_180_knife_20_n03041632_9580.png
barlow_twins,1,777,NaN,knife,oven,90,0777_rot_dnn_90_oven_20_n04111531_7728.png
barlow_twins,1,778,NaN,airplane,bear,0,0778_rot_dnn_0_bear_20_n02134084_3934.png
barlow_twins,1,779,NaN,clock,bottle,270,0779_rot_dnn_270_bottle_20_n04557648_16525.png
barlow_twins,1,780,NaN,oven,bottle,0,0780_rot_dnn_0_bottle_20_n03983396_4313.png
barlow_twins,1,781,NaN,bear,dog,0,0781_rot_dnn_0_dog_20_n02097209_1042.png
barlow_twins,1,782,NaN,oven,airplane,270,0782_rot_dnn_270_airplane_20_n02690373_8876.png
barlow_twins,1,783,NaN,oven,cat,270,0783_rot_dnn_270_cat_20_n02123597_2219.png
barlow_twins,1,784,NaN,oven,boat,270,0784_rot_dnn_270_boat_20_n02951358_9837.png
barlow_twins,1,785,NaN,knife,bird,180,0785_rot_dnn_180_bird_20_n02018207_5735.png
barlow_twins,1,786,NaN,car,boat,0,0786_rot_dnn_0_boat_20_n03662601_7324.png
barlow_twins,1,787,NaN,knife,bottle,90,0787_rot_dnn_90_bottle_20_n04579145_6509.png
barlow_twins,1,788,NaN,oven,clock,0,0788_rot_dnn_0_clock_20_n02708093_2030.png
barlow_twins,1,789,NaN,truck,chair,0,0789_rot_dnn_0_chair_20_n04099969_5854.png
barlow_twins,1,790,NaN,oven,clock,0,0790_rot_dnn_0_clock_20_n04548280_7211.png
barlow_twins,1,791,NaN,elephant,bear,270,0791_rot_dnn_270_bear_20_n02134084_3903.png
barlow_twins,1,792,NaN,oven,bear,90,0792_rot_dnn_90_bear_20_n02134084_7817.png
barlow_twins,1,793,NaN,knife,dog,90,0793_rot_dnn_90_dog_20_n02099601_10748.png
barlow_twins,1,794,NaN,knife,oven,0,0794_rot_dnn_0_oven_20_n04111531_1230.png
barlow_twins,1,795,NaN,knife,car,0,0795_rot_dnn_0_car_20_n02814533_70448.png
barlow_twins,1,796,NaN,oven,knife,0,0796_rot_dnn_0_knife_20_n03041632_49570.png
barlow_twins,1,797,NaN,car,car,0,0797_rot_dnn_0_car_20_n04285008_12909.png
barlow_twins,1,798,NaN,car,boat,0,0798_rot_dnn_0_boat_20_n03344393_6297.png
barlow_twins,1,799,NaN,keyboard,keyboard,90,0799_rot_dnn_90_keyboard_20_n03085013_22665.png
barlow_twins,1,800,NaN,elephant,dog,270,0800_rot_dnn_270_dog_20_n02109047_13710.png
barlow_twins,1,801,NaN,knife,car,270,0801_rot_dnn_270_car_20_n02814533_23563.png
barlow_twins,1,802,NaN,knife,bicycle,0,0802_rot_dnn_0_bicycle_20_n03792782_892.png
barlow_twins,1,803,NaN,knife,bird,180,0803_rot_dnn_180_bird_20_n01616318_1164.png
barlow_twins,1,804,NaN,elephant,bear,270,0804_rot_dnn_270_bear_20_n02134418_5827.png
barlow_twins,1,805,NaN,airplane,knife,270,0805_rot_dnn_270_knife_20_n03041632_424.png
barlow_twins,1,806,NaN,oven,elephant,90,0806_rot_dnn_90_elephant_20_n02504013_4379.png
barlow_twins,1,807,NaN,airplane,keyboard,0,0807_rot_dnn_0_keyboard_20_n03085013_22744.png
barlow_twins,1,808,NaN,elephant,clock,90,0808_rot_dnn_90_clock_20_n04548280_5937.png
barlow_twins,1,809,NaN,clock,bottle,90,0809_rot_dnn_90_bottle_20_n03983396_5514.png
barlow_twins,1,810,NaN,knife,truck,0,0810_rot_dnn_0_truck_20_n03417042_889.png
barlow_twins,1,811,NaN,oven,clock,180,0811_rot_dnn_180_clock_20_n02708093_906.png
barlow_twins,1,812,NaN,bottle,bicycle,180,0812_rot_dnn_180_bicycle_20_n03792782_15282.png
barlow_twins,1,813,NaN,bottle,clock,90,0813_rot_dnn_90_clock_20_n04548280_1254.png
barlow_twins,1,814,NaN,knife,airplane,0,0814_rot_dnn_0_airplane_20_n02690373_764.png
barlow_twins,1,815,NaN,clock,bicycle,270,0815_rot_dnn_270_bicycle_20_n02835271_22206.png
barlow_twins,1,816,NaN,oven,bottle,0,0816_rot_dnn_0_bottle_20_n02823428_3570.png
barlow_twins,1,817,NaN,bottle,bicycle,180,0817_rot_dnn_180_bicycle_20_n03792782_14413.png
barlow_twins,1,818,NaN,knife,bear,90,0818_rot_dnn_90_bear_20_n02134418_2661.png
barlow_twins,1,819,NaN,keyboard,cat,270,0819_rot_dnn_270_cat_20_n02123394_4700.png
barlow_twins,1,820,NaN,oven,bottle,0,0820_rot_dnn_0_bottle_20_n04557648_3959.png
barlow_twins,1,821,NaN,oven,bottle,90,0821_rot_dnn_90_bottle_20_n03937543_2469.png
barlow_twins,1,822,NaN,truck,clock,90,0822_rot_dnn_90_clock_20_n02708093_2676.png
barlow_twins,1,823,NaN,knife,cat,0,0823_rot_dnn_0_cat_20_n02123597_19872.png
barlow_twins,1,824,NaN,oven,oven,180,0824_rot_dnn_180_oven_20_n04111531_14488.png
barlow_twins,1,825,NaN,oven,clock,270,0825_rot_dnn_270_clock_20_n02708093_3841.png
barlow_twins,1,826,NaN,bear,cat,180,0826_rot_dnn_180_cat_20_n02123045_11787.png
barlow_twins,1,827,NaN,oven,elephant,90,0827_rot_dnn_90_elephant_20_n02504458_6470.png
barlow_twins,1,828,NaN,oven,bird,270,0828_rot_dnn_270_bird_20_n01558993_55.png
barlow_twins,1,829,NaN,elephant,elephant,270,0829_rot_dnn_270_elephant_20_n02504458_8296.png
barlow_twins,1,830,NaN,clock,car,270,0830_rot_dnn_270_car_20_n02814533_41670.png
barlow_twins,1,831,NaN,elephant,bottle,0,0831_rot_dnn_0_bottle_20_n03983396_1881.png
barlow_twins,1,832,NaN,bear,airplane,180,0832_rot_dnn_180_airplane_20_n02690373_1491.png
barlow_twins,1,833,NaN,keyboard,oven,0,0833_rot_dnn_0_oven_20_n04111531_6204.png
barlow_twins,1,834,NaN,knife,elephant,270,0834_rot_dnn_270_elephant_20_n02504013_5364.png
barlow_twins,1,835,NaN,knife,airplane,0,0835_rot_dnn_0_airplane_20_n02690373_389.png
barlow_twins,1,836,NaN,knife,cat,90,0836_rot_dnn_90_cat_20_n02123159_6933.png
barlow_twins,1,837,NaN,airplane,dog,90,0837_rot_dnn_90_dog_20_n02111277_2994.png
barlow_twins,1,838,NaN,knife,dog,0,0838_rot_dnn_0_dog_20_n02112018_7786.png
barlow_twins,1,839,NaN,car,bear,90,0839_rot_dnn_90_bear_20_n02134418_10879.png
barlow_twins,1,840,NaN,elephant,clock,270,0840_rot_dnn_270_clock_20_n03196217_1984.png
barlow_twins,1,841,NaN,oven,clock,270,0841_rot_dnn_270_clock_20_n03196217_5433.png
barlow_twins,1,842,NaN,bear,bird,90,0842_rot_dnn_90_bird_20_n02006656_10849.png
barlow_twins,1,843,NaN,chair,bicycle,0,0843_rot_dnn_0_bicycle_20_n03792782_15757.png
barlow_twins,1,844,NaN,truck,bicycle,90,0844_rot_dnn_90_bicycle_20_n02835271_4797.png
barlow_twins,1,845,NaN,oven,clock,0,0845_rot_dnn_0_clock_20_n02708093_1897.png
barlow_twins,1,846,NaN,oven,bottle,270,0846_rot_dnn_270_bottle_20_n02823428_1495.png
barlow_twins,1,847,NaN,oven,clock,0,0847_rot_dnn_0_clock_20_n04548280_3038.png
barlow_twins,1,848,NaN,bear,bird,90,0848_rot_dnn_90_bird_20_n01614925_2052.png
barlow_twins,1,849,NaN,knife,boat,0,0849_rot_dnn_0_boat_20_n03662601_16495.png
barlow_twins,1,850,NaN,airplane,knife,90,0850_rot_dnn_90_knife_20_n03041632_33255.png
barlow_twins,1,851,NaN,knife,keyboard,180,0851_rot_dnn_180_keyboard_20_n03085013_24105.png
barlow_twins,1,852,NaN,knife,bird,0,0852_rot_dnn_0_bird_20_n02033041_3924.png
barlow_twins,1,853,NaN,bear,dog,90,0853_rot_dnn_90_dog_20_n02110806_8971.png
barlow_twins,1,854,NaN,knife,keyboard,270,0854_rot_dnn_270_keyboard_20_n04505470_2055.png
barlow_twins,1,855,NaN,oven,car,270,0855_rot_dnn_270_car_20_n03100240_5946.png
barlow_twins,1,856,NaN,bear,boat,180,0856_rot_dnn_180_boat_20_n03662601_3955.png
barlow_twins,1,857,NaN,oven,clock,270,0857_rot_dnn_270_clock_20_n02708093_5577.png
barlow_twins,1,858,NaN,keyboard,bird,180,0858_rot_dnn_180_bird_20_n02027492_6213.png
barlow_twins,1,859,NaN,elephant,truck,270,0859_rot_dnn_270_truck_20_n04467665_70509.png
barlow_twins,1,860,NaN,oven,cat,90,0860_rot_dnn_90_cat_20_n02123597_2522.png
barlow_twins,1,861,NaN,keyboard,car,0,0861_rot_dnn_0_car_20_n03100240_18679.png
barlow_twins,1,862,NaN,oven,clock,270,0862_rot_dnn_270_clock_20_n03196217_1829.png
barlow_twins,1,863,NaN,oven,truck,0,0863_rot_dnn_0_truck_20_n03796401_5058.png
barlow_twins,1,864,NaN,knife,car,0,0864_rot_dnn_0_car_20_n02814533_88986.png
barlow_twins,1,865,NaN,knife,bicycle,90,0865_rot_dnn_90_bicycle_20_n03792782_1924.png
barlow_twins,1,866,NaN,elephant,chair,180,0866_rot_dnn_180_chair_20_n04429376_3898.png
barlow_twins,1,867,NaN,oven,truck,90,0867_rot_dnn_90_truck_20_n03417042_21946.png
barlow_twins,1,868,NaN,keyboard,truck,0,0868_rot_dnn_0_truck_20_n04467665_84527.png
barlow_twins,1,869,NaN,bear,bicycle,90,0869_rot_dnn_90_bicycle_20_n03792782_16117.png
barlow_twins,1,870,NaN,oven,boat,0,0870_rot_dnn_0_boat_20_n04273569_23800.png
barlow_twins,1,871,NaN,bear,knife,90,0871_rot_dnn_90_knife_20_n03041632_19620.png
barlow_twins,1,872,NaN,car,bicycle,180,0872_rot_dnn_180_bicycle_20_n03792782_26168.png
barlow_twins,1,873,NaN,elephant,bear,0,0873_rot_dnn_0_bear_20_n02132136_1386.png
barlow_twins,1,874,NaN,keyboard,keyboard,90,0874_rot_dnn_90_keyboard_20_n03085013_23625.png
barlow_twins,1,875,NaN,chair,bottle,0,0875_rot_dnn_0_bottle_20_n04557648_757.png
barlow_twins,1,876,NaN,knife,dog,0,0876_rot_dnn_0_dog_20_n02102318_501.png
barlow_twins,1,877,NaN,knife,airplane,270,0877_rot_dnn_270_airplane_20_n02690373_6104.png
barlow_twins,1,878,NaN,knife,dog,0,0878_rot_dnn_0_dog_20_n02089973_9526.png
barlow_twins,1,879,NaN,keyboard,boat,180,0879_rot_dnn_180_boat_20_n04612504_14176.png
barlow_twins,1,880,NaN,elephant,cat,180,0880_rot_dnn_180_cat_20_n02125311_43726.png
barlow_twins,1,881,NaN,bottle,chair,90,0881_rot_dnn_90_chair_20_n04429376_13191.png
barlow_twins,1,882,NaN,keyboard,oven,180,0882_rot_dnn_180_oven_20_n04111531_3611.png
barlow_twins,1,883,NaN,oven,bottle,180,0883_rot_dnn_180_bottle_20_n04560804_15267.png
barlow_twins,1,884,NaN,bottle,knife,180,0884_rot_dnn_180_knife_20_n03041632_2630.png
barlow_twins,1,885,NaN,elephant,cat,90,0885_rot_dnn_90_cat_20_n02124075_14998.png
barlow_twins,1,886,NaN,oven,oven,90,0886_rot_dnn_90_oven_20_n04111531_1556.png
barlow_twins,1,887,NaN,keyboard,chair,270,0887_rot_dnn_270_chair_20_n02791124_5561.png
barlow_twins,1,888,NaN,bear,car,0,0888_rot_dnn_0_car_20_n03100240_2195.png
barlow_twins,1,889,NaN,elephant,bear,270,0889_rot_dnn_270_bear_20_n02134084_1802.png
barlow_twins,1,890,NaN,bottle,clock,180,0890_rot_dnn_180_clock_20_n03196217_571.png
barlow_twins,1,891,NaN,airplane,knife,0,0891_rot_dnn_0_knife_20_n03041632_24113.png
barlow_twins,1,892,NaN,airplane,airplane,0,0892_rot_dnn_0_airplane_20_n02690373_9829.png
barlow_twins,1,893,NaN,oven,truck,90,0893_rot_dnn_90_truck_20_n03796401_15105.png
barlow_twins,1,894,NaN,airplane,bird,90,0894_rot_dnn_90_bird_20_n02018795_414.png
barlow_twins,1,895,NaN,oven,elephant,270,0895_rot_dnn_270_elephant_20_n02504013_13512.png
barlow_twins,1,896,NaN,oven,keyboard,180,0896_rot_dnn_180_keyboard_20_n03085013_6405.png
barlow_twins,1,897,NaN,airplane,elephant,90,0897_rot_dnn_90_elephant_20_n02504013_344.png
barlow_twins,1,898,NaN,elephant,boat,180,0898_rot_dnn_180_boat_20_n02951358_3511.png
barlow_twins,1,899,NaN,elephant,keyboard,180,0899_rot_dnn_180_keyboard_20_n03085013_3691.png
barlow_twins,1,900,NaN,knife,elephant,180,0900_rot_dnn_180_elephant_20_n02504458_5816.png
barlow_twins,1,901,NaN,bear,keyboard,180,0901_rot_dnn_180_keyboard_20_n04505470_10746.png
barlow_twins,1,902,NaN,knife,truck,0,0902_rot_dnn_0_truck_20_n03417042_21047.png
barlow_twins,1,903,NaN,car,boat,0,0903_rot_dnn_0_boat_20_n03662601_8410.png
barlow_twins,1,904,NaN,oven,airplane,270,0904_rot_dnn_270_airplane_20_n02690373_1235.png
barlow_twins,1,905,NaN,elephant,cat,180,0905_rot_dnn_180_cat_20_n02123159_630.png
barlow_twins,1,906,NaN,oven,knife,90,0906_rot_dnn_90_knife_20_n03041632_51339.png
barlow_twins,1,907,NaN,clock,car,90,0907_rot_dnn_90_car_20_n04285008_8641.png
barlow_twins,1,908,NaN,knife,dog,90,0908_rot_dnn_90_dog_20_n02093428_17633.png
barlow_twins,1,909,NaN,airplane,bear,90,0909_rot_dnn_90_bear_20_n02133161_15177.png
barlow_twins,1,910,NaN,keyboard,boat,270,0910_rot_dnn_270_boat_20_n02951358_1362.png
barlow_twins,1,911,NaN,truck,airplane,270,0911_rot_dnn_270_airplane_20_n02690373_6459.png
barlow_twins,1,912,NaN,elephant,bottle,0,0912_rot_dnn_0_bottle_20_n03937543_1197.png
barlow_twins,1,913,NaN,elephant,bear,0,0913_rot_dnn_0_bear_20_n02132136_9797.png
barlow_twins,1,914,NaN,keyboard,clock,270,0914_rot_dnn_270_clock_20_n02708093_3674.png
barlow_twins,1,915,NaN,bottle,bear,0,0915_rot_dnn_0_bear_20_n02132136_2799.png
barlow_twins,1,916,NaN,oven,bird,270,0916_rot_dnn_270_bird_20_n01582220_6459.png
barlow_twins,1,917,NaN,keyboard,bird,0,0917_rot_dnn_0_bird_20_n01817953_141.png
barlow_twins,1,918,NaN,car,bicycle,90,0918_rot_dnn_90_bicycle_20_n03792782_15016.png
barlow_twins,1,919,NaN,knife,car,270,0919_rot_dnn_270_car_20_n04285008_17151.png
barlow_twins,1,920,NaN,elephant,truck,180,0920_rot_dnn_180_truck_20_n03796401_2258.png
barlow_twins,1,921,NaN,bear,knife,0,0921_rot_dnn_0_knife_20_n03041632_10263.png
barlow_twins,1,922,NaN,knife,knife,90,0922_rot_dnn_90_knife_20_n03041632_30079.png
barlow_twins,1,923,NaN,airplane,oven,0,0923_rot_dnn_0_oven_20_n04111531_24065.png
barlow_twins,1,924,NaN,bottle,airplane,180,0924_rot_dnn_180_airplane_20_n02690373_3669.png
barlow_twins,1,925,NaN,knife,boat,180,0925_rot_dnn_180_boat_20_n02951358_3819.png
barlow_twins,1,926,NaN,knife,clock,0,0926_rot_dnn_0_clock_20_n04548280_8278.png
barlow_twins,1,927,NaN,oven,bird,0,0927_rot_dnn_0_bird_20_n01855672_55568.png
barlow_twins,1,928,NaN,oven,keyboard,90,0928_rot_dnn_90_keyboard_20_n04505470_961.png
barlow_twins,1,929,NaN,oven,bear,0,0929_rot_dnn_0_bear_20_n02133161_2040.png
barlow_twins,1,930,NaN,truck,chair,270,0930_rot_dnn_270_chair_20_n04099969_9243.png
barlow_twins,1,931,NaN,car,truck,90,0931_rot_dnn_90_truck_20_n04467665_15994.png
barlow_twins,1,932,NaN,oven,knife,270,0932_rot_dnn_270_knife_20_n03041632_29940.png
barlow_twins,1,933,NaN,oven,clock,180,0933_rot_dnn_180_clock_20_n03196217_1271.png
barlow_twins,1,934,NaN,knife,knife,180,0934_rot_dnn_180_knife_20_n03041632_33268.png
barlow_twins,1,935,NaN,oven,cat,270,0935_rot_dnn_270_cat_20_n02123045_13025.png
barlow_twins,1,936,NaN,bear,elephant,270,0936_rot_dnn_270_elephant_20_n02504013_4339.png
barlow_twins,1,937,NaN,keyboard,airplane,90,0937_rot_dnn_90_airplane_20_n02690373_3050.png
barlow_twins,1,938,NaN,elephant,chair,90,0938_rot_dnn_90_chair_20_n04099969_2561.png
barlow_twins,1,939,NaN,bear,dog,180,0939_rot_dnn_180_dog_20_n02097047_5605.png
barlow_twins,1,940,NaN,knife,airplane,180,0940_rot_dnn_180_airplane_20_n02690373_6332.png
barlow_twins,1,941,NaN,clock,bottle,180,0941_rot_dnn_180_bottle_20_n02823428_3298.png
barlow_twins,1,942,NaN,keyboard,cat,90,0942_rot_dnn_90_cat_20_n02124075_1121.png
barlow_twins,1,943,NaN,bear,bicycle,90,0943_rot_dnn_90_bicycle_20_n03792782_42978.png
barlow_twins,1,944,NaN,oven,bottle,0,0944_rot_dnn_0_bottle_20_n04560804_15625.png
barlow_twins,1,945,NaN,knife,boat,180,0945_rot_dnn_180_boat_20_n04612504_13034.png
barlow_twins,1,946,NaN,airplane,dog,180,0946_rot_dnn_180_dog_20_n02099267_4999.png
barlow_twins,1,947,NaN,truck,chair,0,0947_rot_dnn_0_chair_20_n04099969_6431.png
barlow_twins,1,948,NaN,knife,truck,0,0948_rot_dnn_0_truck_20_n03417042_6975.png
barlow_twins,1,949,NaN,airplane,dog,270,0949_rot_dnn_270_dog_20_n02113023_291.png
barlow_twins,1,950,NaN,knife,airplane,180,0950_rot_dnn_180_airplane_20_n02690373_2038.png
barlow_twins,1,951,NaN,elephant,bear,90,0951_rot_dnn_90_bear_20_n02134418_5783.png
barlow_twins,1,952,NaN,oven,airplane,90,0952_rot_dnn_90_airplane_20_n02690373_12929.png
barlow_twins,1,953,NaN,oven,oven,90,0953_rot_dnn_90_oven_20_n04111531_2618.png
barlow_twins,1,954,NaN,keyboard,bird,180,0954_rot_dnn_180_bird_20_n02009912_18708.png
barlow_twins,1,955,NaN,oven,clock,0,0955_rot_dnn_0_clock_20_n03196217_1255.png
barlow_twins,1,956,NaN,knife,airplane,180,0956_rot_dnn_180_airplane_20_n02690373_2128.png
barlow_twins,1,957,NaN,knife,airplane,180,0957_rot_dnn_180_airplane_20_n02690373_852.png
barlow_twins,1,958,NaN,oven,oven,270,0958_rot_dnn_270_oven_20_n04111531_18430.png
barlow_twins,1,959,NaN,keyboard,bird,0,0959_rot_dnn_0_bird_20_n01534433_1227.png
barlow_twins,1,960,NaN,car,car,0,0960_rot_dnn_0_car_20_n03100240_3927.png
barlow_twins,1,961,NaN,elephant,knife,0,0961_rot_dnn_0_knife_20_n03041632_43289.png
barlow_twins,1,962,NaN,oven,dog,180,0962_rot_dnn_180_dog_20_n02109961_36163.png
barlow_twins,1,963,NaN,bear,airplane,0,0963_rot_dnn_0_airplane_20_n02690373_2379.png
barlow_twins,1,964,NaN,oven,oven,270,0964_rot_dnn_270_oven_20_n04111531_9429.png
barlow_twins,1,965,NaN,oven,keyboard,0,0965_rot_dnn_0_keyboard_20_n04505470_763.png
barlow_twins,1,966,NaN,oven,oven,90,0966_rot_dnn_90_oven_20_n04111531_4327.png
barlow_twins,1,967,NaN,oven,boat,270,0967_rot_dnn_270_boat_20_n03344393_1533.png
barlow_twins,1,968,NaN,knife,elephant,180,0968_rot_dnn_180_elephant_20_n02504458_1504.png
barlow_twins,1,969,NaN,oven,dog,0,0969_rot_dnn_0_dog_20_n02091831_332.png
barlow_twins,1,970,NaN,bear,knife,270,0970_rot_dnn_270_knife_20_n03041632_7205.png
barlow_twins,1,971,NaN,airplane,dog,0,0971_rot_dnn_0_dog_20_n02104029_4770.png
barlow_twins,1,972,NaN,knife,elephant,0,0972_rot_dnn_0_elephant_20_n02504013_1636.png
barlow_twins,1,973,NaN,oven,cat,270,0973_rot_dnn_270_cat_20_n02123597_6434.png
barlow_twins,1,974,NaN,oven,airplane,270,0974_rot_dnn_270_airplane_20_n02690373_4434.png
barlow_twins,1,975,NaN,bottle,bicycle,180,0975_rot_dnn_180_bicycle_20_n03792782_70555.png
barlow_twins,1,976,NaN,airplane,bear,90,0976_rot_dnn_90_bear_20_n02132136_14056.png
barlow_twins,1,977,NaN,oven,car,270,0977_rot_dnn_270_car_20_n03100240_17226.png
barlow_twins,1,978,NaN,knife,chair,180,0978_rot_dnn_180_chair_20_n02791124_880.png
barlow_twins,1,979,NaN,knife,elephant,270,0979_rot_dnn_270_elephant_20_n02504013_7724.png
barlow_twins,1,980,NaN,oven,keyboard,90,0980_rot_dnn_90_keyboard_20_n04505470_4173.png
barlow_twins,1,981,NaN,oven,boat,0,0981_rot_dnn_0_boat_20_n03344393_9127.png
barlow_twins,1,982,NaN,oven,knife,180,0982_rot_dnn_180_knife_20_n03041632_39883.png
barlow_twins,1,983,NaN,oven,bird,90,0983_rot_dnn_90_bird_20_n01797886_2347.png
barlow_twins,1,984,NaN,knife,oven,90,0984_rot_dnn_90_oven_20_n04111531_11157.png
barlow_twins,1,985,NaN,oven,airplane,270,0985_rot_dnn_270_airplane_20_n02690373_2584.png
barlow_twins,1,986,NaN,elephant,chair,180,0986_rot_dnn_180_chair_20_n02791124_3923.png
barlow_twins,1,987,NaN,car,bicycle,0,0987_rot_dnn_0_bicycle_20_n02835271_12743.png
barlow_twins,1,988,NaN,airplane,truck,180,0988_rot_dnn_180_truck_20_n03417042_21663.png
barlow_twins,1,989,NaN,chair,bicycle,270,0989_rot_dnn_270_bicycle_20_n03792782_50904.png
barlow_twins,1,990,NaN,knife,clock,0,0990_rot_dnn_0_clock_20_n03196217_5103.png
barlow_twins,1,991,NaN,knife,elephant,180,0991_rot_dnn_180_elephant_20_n02504458_5641.png
barlow_twins,1,992,NaN,knife,airplane,0,0992_rot_dnn_0_airplane_20_n02690373_8163.png
barlow_twins,1,993,NaN,oven,oven,270,0993_rot_dnn_270_oven_20_n04111531_22041.png
barlow_twins,1,994,NaN,elephant,dog,0,0994_rot_dnn_0_dog_20_n02106550_1763.png
barlow_twins,1,995,NaN,clock,dog,270,0995_rot_dnn_270_dog_20_n02094433_1289.png
barlow_twins,1,996,NaN,elephant,keyboard,270,0996_rot_dnn_270_keyboard_20_n04505470_6662.png
barlow_twins,1,997,NaN,oven,knife,180,0997_rot_dnn_180_knife_20_n03041632_24228.png
barlow_twins,1,998,NaN,oven,truck,180,0998_rot_dnn_180_truck_20_n04467665_13225.png
barlow_twins,1,999,NaN,truck,elephant,180,0999_rot_dnn_180_elephant_20_n02504013_7926.png
barlow_twins,1,1000,NaN,chair,bicycle,0,1000_rot_dnn_0_bicycle_20_n02835271_9310.png
barlow_twins,1,1001,NaN,car,clock,180,1001_rot_dnn_180_clock_20_n04548280_3305.png
barlow_twins,1,1002,NaN,bear,dog,270,1002_rot_dnn_270_dog_20_n02105505_3286.png
barlow_twins,1,1003,NaN,oven,cat,180,1003_rot_dnn_180_cat_20_n02123045_5999.png
barlow_twins,1,1004,NaN,oven,truck,180,1004_rot_dnn_180_truck_20_n03417042_5004.png
barlow_twins,1,1005,NaN,knife,bird,270,1005_rot_dnn_270_bird_20_n02013706_652.png
barlow_twins,1,1006,NaN,bear,bird,270,1006_rot_dnn_270_bird_20_n02018207_7930.png
barlow_twins,1,1007,NaN,bear,truck,180,1007_rot_dnn_180_truck_20_n03417042_6539.png
barlow_twins,1,1008,NaN,airplane,elephant,90,1008_rot_dnn_90_elephant_20_n02504458_12090.png
barlow_twins,1,1009,NaN,knife,truck,270,1009_rot_dnn_270_truck_20_n03417042_9552.png
barlow_twins,1,1010,NaN,knife,dog,180,1010_rot_dnn_180_dog_20_n02111277_4038.png
barlow_twins,1,1011,NaN,oven,bottle,270,1011_rot_dnn_270_bottle_20_n04591713_7036.png
barlow_twins,1,1012,NaN,keyboard,chair,270,1012_rot_dnn_270_chair_20_n04429376_13448.png
barlow_twins,1,1013,NaN,airplane,oven,270,1013_rot_dnn_270_oven_20_n04111531_845.png
barlow_twins,1,1014,NaN,airplane,dog,90,1014_rot_dnn_90_dog_20_n02090622_7692.png
barlow_twins,1,1015,NaN,bottle,bottle,0,1015_rot_dnn_0_bottle_20_n03983396_17262.png
barlow_twins,1,1016,NaN,knife,elephant,180,1016_rot_dnn_180_elephant_20_n02504458_1623.png
barlow_twins,1,1017,NaN,cat,keyboard,180,1017_rot_dnn_180_keyboard_20_n03085013_20960.png
barlow_twins,1,1018,NaN,bottle,airplane,270,1018_rot_dnn_270_airplane_20_n02690373_2629.png
barlow_twins,1,1019,NaN,elephant,cat,270,1019_rot_dnn_270_cat_20_n02123159_7369.png
barlow_twins,1,1020,NaN,truck,bottle,90,1020_rot_dnn_90_bottle_20_n04560804_570.png
barlow_twins,1,1021,NaN,chair,car,270,1021_rot_dnn_270_car_20_n02814533_89061.png
barlow_twins,1,1022,NaN,bear,dog,180,1022_rot_dnn_180_dog_20_n02093754_918.png
barlow_twins,1,1023,NaN,elephant,truck,180,1023_rot_dnn_180_truck_20_n03796401_26894.png
barlow_twins,1,1024,NaN,oven,truck,270,1024_rot_dnn_270_truck_20_n03417042_27780.png
barlow_twins,1,1025,NaN,bottle,car,180,1025_rot_dnn_180_car_20_n02814533_75923.png
barlow_twins,1,1026,NaN,elephant,boat,0,1026_rot_dnn_0_boat_20_n03662601_26140.png
barlow_twins,1,1027,NaN,oven,elephant,180,1027_rot_dnn_180_elephant_20_n02504013_1644.png
barlow_twins,1,1028,NaN,keyboard,oven,180,1028_rot_dnn_180_oven_20_n04111531_704.png
barlow_twins,1,1029,NaN,chair,boat,270,1029_rot_dnn_270_boat_20_n03344393_9390.png
barlow_twins,1,1030,NaN,oven,dog,90,1030_rot_dnn_90_dog_20_n02097047_3817.png
barlow_twins,1,1031,NaN,oven,elephant,270,1031_rot_dnn_270_elephant_20_n02504458_4001.png
barlow_twins,1,1032,NaN,knife,elephant,180,1032_rot_dnn_180_elephant_20_n02504458_259.png
barlow_twins,1,1033,NaN,oven,oven,180,1033_rot_dnn_180_oven_20_n04111531_4939.png
barlow_twins,1,1034,NaN,oven,elephant,90,1034_rot_dnn_90_elephant_20_n02504458_2417.png
barlow_twins,1,1035,NaN,knife,elephant,270,1035_rot_dnn_270_elephant_20_n02504458_30.png
barlow_twins,1,1036,NaN,knife,chair,270,1036_rot_dnn_270_chair_20_n04099969_41686.png
barlow_twins,1,1037,NaN,keyboard,knife,270,1037_rot_dnn_270_knife_20_n03041632_46112.png
barlow_twins,1,1038,NaN,oven,oven,270,1038_rot_dnn_270_oven_20_n04111531_10722.png
barlow_twins,1,1039,NaN,oven,knife,270,1039_rot_dnn_270_knife_20_n03041632_751.png
barlow_twins,1,1040,NaN,oven,clock,270,1040_rot_dnn_270_clock_20_n03196217_8887.png
barlow_twins,1,1041,NaN,elephant,chair,180,1041_rot_dnn_180_chair_20_n02791124_2938.png
barlow_twins,1,1042,NaN,elephant,chair,90,1042_rot_dnn_90_chair_20_n02791124_1740.png
barlow_twins,1,1043,NaN,car,bicycle,90,1043_rot_dnn_90_bicycle_20_n03792782_442.png
barlow_twins,1,1044,NaN,bottle,car,180,1044_rot_dnn_180_car_20_n03100240_6479.png
barlow_twins,1,1045,NaN,keyboard,keyboard,180,1045_rot_dnn_180_keyboard_20_n03085013_24316.png
barlow_twins,1,1046,NaN,knife,elephant,90,1046_rot_dnn_90_elephant_20_n02504013_1500.png
barlow_twins,1,1047,NaN,bear,truck,180,1047_rot_dnn_180_truck_20_n03417042_189.png
barlow_twins,1,1048,NaN,bottle,dog,180,1048_rot_dnn_180_dog_20_n02090721_1449.png
barlow_twins,1,1049,NaN,knife,clock,270,1049_rot_dnn_270_clock_20_n03196217_3194.png
barlow_twins,1,1050,NaN,oven,knife,0,1050_rot_dnn_0_knife_20_n03041632_4279.png
barlow_twins,1,1051,NaN,chair,boat,270,1051_rot_dnn_270_boat_20_n02951358_4937.png
barlow_twins,1,1052,NaN,oven,clock,180,1052_rot_dnn_180_clock_20_n03196217_946.png
barlow_twins,1,1053,NaN,oven,clock,0,1053_rot_dnn_0_clock_20_n04548280_6776.png
barlow_twins,1,1054,NaN,knife,dog,90,1054_rot_dnn_90_dog_20_n02108551_7945.png
barlow_twins,1,1055,NaN,knife,knife,90,1055_rot_dnn_90_knife_20_n03041632_19571.png
barlow_twins,1,1056,NaN,elephant,knife,270,1056_rot_dnn_270_knife_20_n03041632_29886.png
barlow_twins,1,1057,NaN,knife,oven,270,1057_rot_dnn_270_oven_20_n04111531_5015.png
barlow_twins,1,1058,NaN,elephant,bottle,180,1058_rot_dnn_180_bottle_20_n02823428_8392.png
barlow_twins,1,1059,NaN,knife,bird,90,1059_rot_dnn_90_bird_20_n01592084_6242.png
barlow_twins,1,1060,NaN,oven,bottle,0,1060_rot_dnn_0_bottle_20_n03937543_7357.png
barlow_twins,1,1061,NaN,car,truck,270,1061_rot_dnn_270_truck_20_n03796401_7455.png
barlow_twins,1,1062,NaN,cat,clock,180,1062_rot_dnn_180_clock_20_n04548280_2313.png
barlow_twins,1,1063,NaN,oven,airplane,90,1063_rot_dnn_90_airplane_20_n02690373_5748.png
barlow_twins,1,1064,NaN,oven,elephant,90,1064_rot_dnn_90_elephant_20_n02504013_673.png
barlow_twins,1,1065,NaN,knife,keyboard,180,1065_rot_dnn_180_keyboard_20_n04505470_4384.png
barlow_twins,1,1066,NaN,cat,bird,180,1066_rot_dnn_180_bird_20_n02051845_8617.png
barlow_twins,1,1067,NaN,chair,bicycle,90,1067_rot_dnn_90_bicycle_20_n03792782_47774.png
barlow_twins,1,1068,NaN,oven,oven,270,1068_rot_dnn_270_oven_20_n04111531_12952.png
barlow_twins,1,1069,NaN,knife,oven,180,1069_rot_dnn_180_oven_20_n04111531_2199.png
barlow_twins,1,1070,NaN,bottle,car,90,1070_rot_dnn_90_car_20_n04285008_8519.png
barlow_twins,1,1071,NaN,knife,boat,0,1071_rot_dnn_0_boat_20_n03344393_8032.png
barlow_twins,1,1072,NaN,oven,knife,0,1072_rot_dnn_0_knife_20_n03041632_6557.png
barlow_twins,1,1073,NaN,knife,boat,0,1073_rot_dnn_0_boat_20_n04273569_11502.png
barlow_twins,1,1074,NaN,knife,car,270,1074_rot_dnn_270_car_20_n03100240_7741.png
barlow_twins,1,1075,NaN,knife,elephant,180,1075_rot_dnn_180_elephant_20_n02504013_5035.png
barlow_twins,1,1076,NaN,truck,chair,90,1076_rot_dnn_90_chair_20_n02791124_5749.png
barlow_twins,1,1077,NaN,bottle,cat,270,1077_rot_dnn_270_cat_20_n02123045_8409.png
barlow_twins,1,1078,NaN,oven,airplane,270,1078_rot_dnn_270_airplane_20_n02690373_8740.png
barlow_twins,1,1079,NaN,knife,knife,90,1079_rot_dnn_90_knife_20_n03041632_84012.png
barlow_twins,1,1080,NaN,oven,chair,0,1080_rot_dnn_0_chair_20_n04099969_17087.png
barlow_twins,1,1081,NaN,oven,elephant,270,1081_rot_dnn_270_elephant_20_n02504013_522.png
barlow_twins,1,1082,NaN,keyboard,keyboard,0,1082_rot_dnn_0_keyboard_20_n03085013_22217.png
barlow_twins,1,1083,NaN,knife,truck,0,1083_rot_dnn_0_truck_20_n03796401_6294.png
barlow_twins,1,1084,NaN,oven,clock,90,1084_rot_dnn_90_clock_20_n03196217_421.png
barlow_twins,1,1085,NaN,knife,bottle,90,1085_rot_dnn_90_bottle_20_n04591713_1824.png
barlow_twins,1,1086,NaN,oven,chair,90,1086_rot_dnn_90_chair_20_n03376595_8064.png
barlow_twins,1,1087,NaN,truck,airplane,90,1087_rot_dnn_90_airplane_20_n02690373_2675.png
barlow_twins,1,1088,NaN,truck,keyboard,180,1088_rot_dnn_180_keyboard_20_n03085013_20478.png
barlow_twins,1,1089,NaN,keyboard,car,0,1089_rot_dnn_0_car_20_n03100240_24420.png
barlow_twins,1,1090,NaN,knife,bird,90,1090_rot_dnn_90_bird_20_n02011460_22646.png
barlow_twins,1,1091,NaN,oven,clock,0,1091_rot_dnn_0_clock_20_n03196217_4254.png
barlow_twins,1,1092,NaN,keyboard,cat,0,1092_rot_dnn_0_cat_20_n02124075_13577.png
barlow_twins,1,1093,NaN,bear,chair,270,1093_rot_dnn_270_chair_20_n04099969_130.png
barlow_twins,1,1094,NaN,oven,oven,270,1094_rot_dnn_270_oven_20_n04111531_6863.png
barlow_twins,1,1095,NaN,car,bicycle,270,1095_rot_dnn_270_bicycle_20_n02835271_8757.png
barlow_twins,1,1096,NaN,oven,oven,180,1096_rot_dnn_180_oven_20_n04111531_16708.png
barlow_twins,1,1097,NaN,chair,bird,90,1097_rot_dnn_90_bird_20_n02006656_4486.png
barlow_twins,1,1098,NaN,elephant,keyboard,90,1098_rot_dnn_90_keyboard_20_n04505470_816.png
barlow_twins,1,1099,NaN,bottle,bear,270,1099_rot_dnn_270_bear_20_n02134418_1388.png
barlow_twins,1,1100,NaN,oven,keyboard,90,1100_rot_dnn_90_keyboard_20_n04505470_3207.png
barlow_twins,1,1101,NaN,keyboard,oven,0,1101_rot_dnn_0_oven_20_n04111531_4845.png
barlow_twins,1,1102,NaN,knife,dog,270,1102_rot_dnn_270_dog_20_n02108551_1207.png
barlow_twins,1,1103,NaN,clock,truck,0,1103_rot_dnn_0_truck_20_n04467665_8189.png
barlow_twins,1,1104,NaN,elephant,cat,180,1104_rot_dnn_180_cat_20_n02124075_13437.png
barlow_twins,1,1105,NaN,elephant,clock,180,1105_rot_dnn_180_clock_20_n02708093_2900.png
barlow_twins,1,1106,NaN,knife,truck,0,1106_rot_dnn_0_truck_20_n03417042_19355.png
barlow_twins,1,1107,NaN,oven,oven,270,1107_rot_dnn_270_oven_20_n04111531_6533.png
barlow_twins,1,1108,NaN,elephant,bear,270,1108_rot_dnn_270_bear_20_n02132136_9358.png
barlow_twins,1,1109,NaN,elephant,bicycle,180,1109_rot_dnn_180_bicycle_20_n03792782_3591.png
barlow_twins,1,1110,NaN,clock,bear,90,1110_rot_dnn_90_bear_20_n02134418_1026.png
barlow_twins,1,1111,NaN,elephant,bottle,180,1111_rot_dnn_180_bottle_20_n03983396_2002.png
barlow_twins,1,1112,NaN,bottle,car,90,1112_rot_dnn_90_car_20_n03100240_7495.png
barlow_twins,1,1113,NaN,truck,bottle,180,1113_rot_dnn_180_bottle_20_n03983396_5883.png
barlow_twins,1,1114,NaN,elephant,bicycle,270,1114_rot_dnn_270_bicycle_20_n03792782_29606.png
barlow_twins,1,1115,NaN,truck,bird,0,1115_rot_dnn_0_bird_20_n02013706_7808.png
barlow_twins,1,1116,NaN,oven,clock,90,1116_rot_dnn_90_clock_20_n03196217_4578.png
barlow_twins,1,1117,NaN,knife,bear,180,1117_rot_dnn_180_bear_20_n02132136_9703.png
barlow_twins,1,1118,NaN,car,boat,0,1118_rot_dnn_0_boat_20_n03344393_2866.png
barlow_twins,1,1119,NaN,airplane,cat,270,1119_rot_dnn_270_cat_20_n02125311_21290.png
barlow_twins,1,1120,NaN,car,car,180,1120_rot_dnn_180_car_20_n03100240_7781.png
barlow_twins,1,1121,NaN,knife,dog,180,1121_rot_dnn_180_dog_20_n02087394_9693.png
barlow_twins,1,1122,NaN,oven,cat,180,1122_rot_dnn_180_cat_20_n02123159_2285.png
barlow_twins,1,1123,NaN,car,boat,270,1123_rot_dnn_270_boat_20_n03344393_3877.png
barlow_twins,1,1124,NaN,oven,bottle,270,1124_rot_dnn_270_bottle_20_n03983396_22816.png
barlow_twins,1,1125,NaN,knife,clock,270,1125_rot_dnn_270_clock_20_n03196217_2022.png
barlow_twins,1,1126,NaN,knife,car,180,1126_rot_dnn_180_car_20_n04285008_8530.png
barlow_twins,1,1127,NaN,clock,bear,270,1127_rot_dnn_270_bear_20_n02134084_147.png
barlow_twins,1,1128,NaN,airplane,boat,0,1128_rot_dnn_0_boat_20_n02951358_18762.png
barlow_twins,1,1129,NaN,knife,knife,180,1129_rot_dnn_180_knife_20_n03041632_4318.png
barlow_twins,1,1130,NaN,elephant,bottle,180,1130_rot_dnn_180_bottle_20_n04591713_6169.png
barlow_twins,1,1131,NaN,elephant,cat,270,1131_rot_dnn_270_cat_20_n02123159_5939.png
barlow_twins,1,1132,NaN,knife,bear,270,1132_rot_dnn_270_bear_20_n02132136_3207.png
barlow_twins,1,1133,NaN,bear,dog,270,1133_rot_dnn_270_dog_20_n02107683_7183.png
barlow_twins,1,1134,NaN,knife,bottle,270,1134_rot_dnn_270_bottle_20_n02823428_10946.png
barlow_twins,1,1135,NaN,knife,elephant,270,1135_rot_dnn_270_elephant_20_n02504013_4762.png
barlow_twins,1,1136,NaN,knife,boat,90,1136_rot_dnn_90_boat_20_n04273569_17255.png
barlow_twins,1,1137,NaN,keyboard,knife,90,1137_rot_dnn_90_knife_20_n03041632_26710.png
barlow_twins,1,1138,NaN,knife,car,0,1138_rot_dnn_0_car_20_n02814533_40531.png
barlow_twins,1,1139,NaN,oven,bottle,270,1139_rot_dnn_270_bottle_20_n04591713_3663.png
barlow_twins,1,1140,NaN,knife,truck,90,1140_rot_dnn_90_truck_20_n03417042_28657.png
barlow_twins,1,1141,NaN,knife,elephant,90,1141_rot_dnn_90_elephant_20_n02504013_318.png
barlow_twins,1,1142,NaN,oven,elephant,270,1142_rot_dnn_270_elephant_20_n02504013_1761.png
barlow_twins,1,1143,NaN,oven,bottle,180,1143_rot_dnn_180_bottle_20_n02823428_8077.png
barlow_twins,1,1144,NaN,oven,truck,90,1144_rot_dnn_90_truck_20_n04467665_90715.png
barlow_twins,1,1145,NaN,bottle,car,90,1145_rot_dnn_90_car_20_n02814533_31743.png
barlow_twins,1,1146,NaN,car,chair,90,1146_rot_dnn_90_chair_20_n03376595_14588.png
barlow_twins,1,1147,NaN,chair,knife,0,1147_rot_dnn_0_knife_20_n03041632_100645.png
barlow_twins,1,1148,NaN,elephant,airplane,180,1148_rot_dnn_180_airplane_20_n02690373_9293.png
barlow_twins,1,1149,NaN,oven,airplane,90,1149_rot_dnn_90_airplane_20_n02690373_4714.png
barlow_twins,1,1150,NaN,knife,boat,180,1150_rot_dnn_180_boat_20_n03344393_8749.png
barlow_twins,1,1151,NaN,keyboard,bicycle,0,1151_rot_dnn_0_bicycle_20_n02835271_8137.png
barlow_twins,1,1152,NaN,knife,cat,0,1152_rot_dnn_0_cat_20_n02124075_9358.png
barlow_twins,1,1153,NaN,elephant,bottle,270,1153_rot_dnn_270_bottle_20_n03983396_11236.png
barlow_twins,1,1154,NaN,oven,dog,180,1154_rot_dnn_180_dog_20_n02107142_4461.png
barlow_twins,1,1155,NaN,knife,airplane,0,1155_rot_dnn_0_airplane_20_n02690373_17731.png
barlow_twins,1,1156,NaN,knife,car,90,1156_rot_dnn_90_car_20_n04285008_8102.png
barlow_twins,1,1157,NaN,knife,knife,90,1157_rot_dnn_90_knife_20_n03041632_17859.png
barlow_twins,1,1158,NaN,oven,car,90,1158_rot_dnn_90_car_20_n02814533_14121.png
barlow_twins,1,1159,NaN,oven,keyboard,0,1159_rot_dnn_0_keyboard_20_n04505470_4619.png
barlow_twins,1,1160,NaN,elephant,dog,270,1160_rot_dnn_270_dog_20_n02107683_2450.png
barlow_twins,1,1161,NaN,elephant,dog,90,1161_rot_dnn_90_dog_20_n02087394_2278.png
barlow_twins,1,1162,NaN,airplane,keyboard,270,1162_rot_dnn_270_keyboard_20_n03085013_24228.png
barlow_twins,1,1163,NaN,knife,keyboard,0,1163_rot_dnn_0_keyboard_20_n03085013_24103.png
barlow_twins,1,1164,NaN,oven,truck,270,1164_rot_dnn_270_truck_20_n03796401_6346.png
barlow_twins,1,1165,NaN,airplane,keyboard,0,1165_rot_dnn_0_keyboard_20_n03085013_23834.png
barlow_twins,1,1166,NaN,knife,bottle,270,1166_rot_dnn_270_bottle_20_n04579145_3729.png
barlow_twins,1,1167,NaN,bear,bear,90,1167_rot_dnn_90_bear_20_n02132136_11339.png
barlow_twins,1,1168,NaN,bottle,bottle,180,1168_rot_dnn_180_bottle_20_n04557648_4242.png
barlow_twins,1,1169,NaN,elephant,bear,270,1169_rot_dnn_270_bear_20_n02132136_15168.png
barlow_twins,1,1170,NaN,oven,dog,180,1170_rot_dnn_180_dog_20_n02097658_3358.png
barlow_twins,1,1171,NaN,chair,bicycle,0,1171_rot_dnn_0_bicycle_20_n02835271_12984.png
barlow_twins,1,1172,NaN,bottle,boat,180,1172_rot_dnn_180_boat_20_n04273569_7818.png
barlow_twins,1,1173,NaN,oven,airplane,270,1173_rot_dnn_270_airplane_20_n02690373_8746.png
barlow_twins,1,1174,NaN,airplane,elephant,0,1174_rot_dnn_0_elephant_20_n02504013_1370.png
barlow_twins,1,1175,NaN,car,bicycle,180,1175_rot_dnn_180_bicycle_20_n03792782_1173.png
barlow_twins,1,1176,NaN,knife,clock,270,1176_rot_dnn_270_clock_20_n03196217_6198.png
barlow_twins,1,1177,NaN,knife,truck,0,1177_rot_dnn_0_truck_20_n03417042_15196.png
barlow_twins,1,1178,NaN,oven,car,270,1178_rot_dnn_270_car_20_n02814533_88566.png
barlow_twins,1,1179,NaN,truck,chair,270,1179_rot_dnn_270_chair_20_n02791124_4412.png
barlow_twins,1,1180,NaN,oven,bird,90,1180_rot_dnn_90_bird_20_n01582220_7400.png
barlow_twins,1,1181,NaN,elephant,boat,90,1181_rot_dnn_90_boat_20_n04273569_19314.png
barlow_twins,1,1182,NaN,knife,keyboard,90,1182_rot_dnn_90_keyboard_20_n03085013_8334.png
barlow_twins,1,1183,NaN,airplane,keyboard,90,1183_rot_dnn_90_keyboard_20_n03085013_12678.png
