subj,session,trial,rt,object_response,category,condition,imagename
dino_v8,1,1,NaN,keyboard,chair,0,0001_rot_dnn_0_chair_20_n03376595_3070.png
dino_v8,1,2,NaN,bicycle,car,180,0002_rot_dnn_180_car_20_n02814533_29367.png
dino_v8,1,3,NaN,bear,car,270,0003_rot_dnn_270_car_20_n02814533_31083.png
dino_v8,1,4,NaN,chair,car,180,0004_rot_dnn_180_car_20_n03100240_1703.png
dino_v8,1,5,NaN,elephant,bottle,180,0005_rot_dnn_180_bottle_20_n04591713_2359.png
dino_v8,1,6,NaN,bicycle,dog,90,0006_rot_dnn_90_dog_20_n02111500_8796.png
dino_v8,1,7,NaN,bear,bear,180,0007_rot_dnn_180_bear_20_n02132136_4512.png
dino_v8,1,8,NaN,knife,chair,90,0008_rot_dnn_90_chair_20_n03376595_4820.png
dino_v8,1,9,NaN,bicycle,bottle,270,0009_rot_dnn_270_bottle_20_n04591713_6111.png
dino_v8,1,10,NaN,bicycle,bottle,270,0010_rot_dnn_270_bottle_20_n04560804_14111.png
dino_v8,1,11,NaN,bear,dog,0,0011_rot_dnn_0_dog_20_n02099601_8656.png
dino_v8,1,12,NaN,knife,cat,0,0012_rot_dnn_0_cat_20_n02125311_14054.png
dino_v8,1,13,NaN,knife,bear,0,0013_rot_dnn_0_bear_20_n02132136_10385.png
dino_v8,1,14,NaN,knife,bottle,90,0014_rot_dnn_90_bottle_20_n02823428_10417.png
dino_v8,1,15,NaN,bear,keyboard,0,0015_rot_dnn_0_keyboard_20_n03085013_23566.png
dino_v8,1,16,NaN,bicycle,truck,90,0016_rot_dnn_90_truck_20_n03417042_12560.png
dino_v8,1,17,NaN,clock,truck,180,0017_rot_dnn_180_truck_20_n04467665_69063.png
dino_v8,1,18,NaN,elephant,oven,180,0018_rot_dnn_180_oven_20_n04111531_9712.png
dino_v8,1,19,NaN,chair,oven,180,0019_rot_dnn_180_oven_20_n04111531_10375.png
dino_v8,1,20,NaN,bicycle,keyboard,0,0020_rot_dnn_0_keyboard_20_n04505470_1744.png
dino_v8,1,21,NaN,bear,boat,90,0021_rot_dnn_90_boat_20_n04273569_7296.png
dino_v8,1,22,NaN,keyboard,dog,0,0022_rot_dnn_0_dog_20_n02101006_4807.png
dino_v8,1,23,NaN,knife,clock,90,0023_rot_dnn_90_clock_20_n02708093_1986.png
dino_v8,1,24,NaN,airplane,bottle,0,0024_rot_dnn_0_bottle_20_n04560804_15562.png
dino_v8,1,25,NaN,knife,cat,0,0025_rot_dnn_0_cat_20_n02124075_13594.png
dino_v8,1,26,NaN,chair,bear,90,0026_rot_dnn_90_bear_20_n02134418_4365.png
dino_v8,1,27,NaN,knife,bear,180,0027_rot_dnn_180_bear_20_n02132136_8650.png
dino_v8,1,28,NaN,knife,bird,90,0028_rot_dnn_90_bird_20_n02009912_12219.png
dino_v8,1,29,NaN,elephant,dog,90,0029_rot_dnn_90_dog_20_n02100236_1662.png
dino_v8,1,30,NaN,keyboard,clock,90,0030_rot_dnn_90_clock_20_n04548280_1947.png
dino_v8,1,31,NaN,knife,dog,270,0031_rot_dnn_270_dog_20_n02109047_66167.png
dino_v8,1,32,NaN,knife,oven,90,0032_rot_dnn_90_oven_20_n04111531_21055.png
dino_v8,1,33,NaN,elephant,clock,0,0033_rot_dnn_0_clock_20_n02708093_2012.png
dino_v8,1,34,NaN,airplane,elephant,0,0034_rot_dnn_0_elephant_20_n02504458_6119.png
dino_v8,1,35,NaN,knife,chair,0,0035_rot_dnn_0_chair_20_n04099969_12707.png
dino_v8,1,36,NaN,knife,keyboard,270,0036_rot_dnn_270_keyboard_20_n03085013_19054.png
dino_v8,1,37,NaN,knife,chair,0,0037_rot_dnn_0_chair_20_n02791124_422.png
dino_v8,1,38,NaN,knife,bicycle,0,0038_rot_dnn_0_bicycle_20_n02835271_23830.png
dino_v8,1,39,NaN,knife,bird,90,0039_rot_dnn_90_bird_20_n01534433_14735.png
dino_v8,1,40,NaN,knife,bird,90,0040_rot_dnn_90_bird_20_n02011460_13994.png
dino_v8,1,41,NaN,knife,boat,270,0041_rot_dnn_270_boat_20_n04273569_17522.png
dino_v8,1,42,NaN,chair,bear,180,0042_rot_dnn_180_bear_20_n02132136_5537.png
dino_v8,1,43,NaN,knife,bear,90,0043_rot_dnn_90_bear_20_n02132136_19248.png
dino_v8,1,44,NaN,keyboard,bird,270,0044_rot_dnn_270_bird_20_n01537544_1886.png
dino_v8,1,45,NaN,chair,clock,180,0045_rot_dnn_180_clock_20_n03196217_4776.png
dino_v8,1,46,NaN,keyboard,boat,270,0046_rot_dnn_270_boat_20_n04612504_17610.png
dino_v8,1,47,NaN,chair,bear,90,0047_rot_dnn_90_bear_20_n02134418_1814.png
dino_v8,1,48,NaN,elephant,keyboard,180,0048_rot_dnn_180_keyboard_20_n03085013_20330.png
dino_v8,1,49,NaN,airplane,bottle,180,0049_rot_dnn_180_bottle_20_n02823428_14574.png
dino_v8,1,50,NaN,knife,bicycle,0,0050_rot_dnn_0_bicycle_20_n03792782_7105.png
dino_v8,1,51,NaN,chair,elephant,0,0051_rot_dnn_0_elephant_20_n02504458_1302.png
dino_v8,1,52,NaN,knife,airplane,90,0052_rot_dnn_90_airplane_20_n02690373_3877.png
dino_v8,1,53,NaN,bear,boat,90,0053_rot_dnn_90_boat_20_n02951358_15422.png
dino_v8,1,54,NaN,oven,car,270,0054_rot_dnn_270_car_20_n02814533_46458.png
dino_v8,1,55,NaN,knife,car,0,0055_rot_dnn_0_car_20_n02814533_39547.png
dino_v8,1,56,NaN,keyboard,boat,180,0056_rot_dnn_180_boat_20_n04273569_6586.png
dino_v8,1,57,NaN,keyboard,clock,90,0057_rot_dnn_90_clock_20_n02708093_3394.png
dino_v8,1,58,NaN,knife,keyboard,180,0058_rot_dnn_180_keyboard_20_n03085013_25419.png
dino_v8,1,59,NaN,elephant,bottle,180,0059_rot_dnn_180_bottle_20_n04557648_1871.png
dino_v8,1,60,NaN,bicycle,chair,90,0060_rot_dnn_90_chair_20_n04099969_6944.png
dino_v8,1,61,NaN,bear,boat,270,0061_rot_dnn_270_boat_20_n04273569_1495.png
dino_v8,1,62,NaN,bicycle,keyboard,90,0062_rot_dnn_90_keyboard_20_n03085013_7317.png
dino_v8,1,63,NaN,chair,knife,90,0063_rot_dnn_90_knife_20_n03041632_7448.png
dino_v8,1,64,NaN,bicycle,truck,0,0064_rot_dnn_0_truck_20_n03417042_11000.png
dino_v8,1,65,NaN,knife,bird,0,0065_rot_dnn_0_bird_20_n01582220_8827.png
dino_v8,1,66,NaN,keyboard,airplane,270,0066_rot_dnn_270_airplane_20_n02690373_9247.png
dino_v8,1,67,NaN,knife,bear,270,0067_rot_dnn_270_bear_20_n02133161_14397.png
dino_v8,1,68,NaN,knife,oven,270,0068_rot_dnn_270_oven_20_n04111531_13560.png
dino_v8,1,69,NaN,clock,bear,180,0069_rot_dnn_180_bear_20_n02132136_545.png
dino_v8,1,70,NaN,knife,cat,90,0070_rot_dnn_90_cat_20_n02125311_73072.png
dino_v8,1,71,NaN,knife,bicycle,0,0071_rot_dnn_0_bicycle_20_n03792782_30530.png
dino_v8,1,72,NaN,airplane,knife,90,0072_rot_dnn_90_knife_20_n03041632_4975.png
dino_v8,1,73,NaN,knife,dog,90,0073_rot_dnn_90_dog_20_n02107683_3120.png
dino_v8,1,74,NaN,cat,elephant,90,0074_rot_dnn_90_elephant_20_n02504013_7316.png
dino_v8,1,75,NaN,airplane,truck,90,0075_rot_dnn_90_truck_20_n03796401_7284.png
dino_v8,1,76,NaN,bird,chair,270,0076_rot_dnn_270_chair_20_n03376595_497.png
dino_v8,1,77,NaN,car,truck,270,0077_rot_dnn_270_truck_20_n03796401_19845.png
dino_v8,1,78,NaN,bear,chair,90,0078_rot_dnn_90_chair_20_n04099969_1941.png
dino_v8,1,79,NaN,airplane,truck,90,0079_rot_dnn_90_truck_20_n03417042_28886.png
dino_v8,1,80,NaN,keyboard,car,0,0080_rot_dnn_0_car_20_n02814533_12185.png
dino_v8,1,81,NaN,knife,bicycle,90,0081_rot_dnn_90_bicycle_20_n02835271_1621.png
dino_v8,1,82,NaN,knife,cat,0,0082_rot_dnn_0_cat_20_n02123597_32226.png
dino_v8,1,83,NaN,elephant,bicycle,90,0083_rot_dnn_90_bicycle_20_n03792782_5048.png
dino_v8,1,84,NaN,knife,airplane,0,0084_rot_dnn_0_airplane_20_n02690373_10044.png
dino_v8,1,85,NaN,knife,car,180,0085_rot_dnn_180_car_20_n03100240_5752.png
dino_v8,1,86,NaN,airplane,car,90,0086_rot_dnn_90_car_20_n02814533_68219.png
dino_v8,1,87,NaN,knife,airplane,0,0087_rot_dnn_0_airplane_20_n02690373_1171.png
dino_v8,1,88,NaN,knife,bird,90,0088_rot_dnn_90_bird_20_n01817953_6970.png
dino_v8,1,89,NaN,bear,car,90,0089_rot_dnn_90_car_20_n04285008_15503.png
dino_v8,1,90,NaN,keyboard,boat,270,0090_rot_dnn_270_boat_20_n03344393_11886.png
dino_v8,1,91,NaN,clock,boat,0,0091_rot_dnn_0_boat_20_n04273569_30203.png
dino_v8,1,92,NaN,knife,keyboard,180,0092_rot_dnn_180_keyboard_20_n03085013_22069.png
dino_v8,1,93,NaN,airplane,knife,0,0093_rot_dnn_0_knife_20_n03041632_26314.png
dino_v8,1,94,NaN,clock,bicycle,270,0094_rot_dnn_270_bicycle_20_n03792782_18308.png
dino_v8,1,95,NaN,bicycle,car,180,0095_rot_dnn_180_car_20_n04285008_8396.png
dino_v8,1,96,NaN,bicycle,bear,90,0096_rot_dnn_90_bear_20_n02133161_12349.png
dino_v8,1,97,NaN,bear,bear,270,0097_rot_dnn_270_bear_20_n02132136_18303.png
dino_v8,1,98,NaN,knife,cat,180,0098_rot_dnn_180_cat_20_n02123394_6853.png
dino_v8,1,99,NaN,boat,cat,180,0099_rot_dnn_180_cat_20_n02123597_4805.png
dino_v8,1,100,NaN,elephant,car,0,0100_rot_dnn_0_car_20_n03100240_17587.png
dino_v8,1,101,NaN,car,bird,180,0101_rot_dnn_180_bird_20_n01601694_19236.png
dino_v8,1,102,NaN,knife,cat,0,0102_rot_dnn_0_cat_20_n02123597_2341.png
dino_v8,1,103,NaN,elephant,elephant,270,0103_rot_dnn_270_elephant_20_n02504013_7883.png
dino_v8,1,104,NaN,clock,chair,270,0104_rot_dnn_270_chair_20_n03376595_14240.png
dino_v8,1,105,NaN,clock,airplane,0,0105_rot_dnn_0_airplane_20_n02690373_10188.png
dino_v8,1,106,NaN,clock,truck,90,0106_rot_dnn_90_truck_20_n03417042_8634.png
dino_v8,1,107,NaN,knife,knife,90,0107_rot_dnn_90_knife_20_n03041632_32774.png
dino_v8,1,108,NaN,bicycle,bottle,90,0108_rot_dnn_90_bottle_20_n03983396_4115.png
dino_v8,1,109,NaN,knife,clock,270,0109_rot_dnn_270_clock_20_n04548280_8552.png
dino_v8,1,110,NaN,cat,car,0,0110_rot_dnn_0_car_20_n02814533_6233.png
dino_v8,1,111,NaN,knife,elephant,0,0111_rot_dnn_0_elephant_20_n02504458_9870.png
dino_v8,1,112,NaN,car,bicycle,270,0112_rot_dnn_270_bicycle_20_n02835271_3956.png
dino_v8,1,113,NaN,chair,knife,90,0113_rot_dnn_90_knife_20_n03041632_14817.png
dino_v8,1,114,NaN,chair,chair,90,0114_rot_dnn_90_chair_20_n04099969_8642.png
dino_v8,1,115,NaN,bicycle,clock,0,0115_rot_dnn_0_clock_20_n02708093_240.png
dino_v8,1,116,NaN,knife,bear,180,0116_rot_dnn_180_bear_20_n02133161_3896.png
dino_v8,1,117,NaN,bicycle,bottle,270,0117_rot_dnn_270_bottle_20_n04557648_11000.png
dino_v8,1,118,NaN,bicycle,keyboard,90,0118_rot_dnn_90_keyboard_20_n03085013_2853.png
dino_v8,1,119,NaN,bicycle,boat,90,0119_rot_dnn_90_boat_20_n04273569_7097.png
dino_v8,1,120,NaN,knife,bicycle,270,0120_rot_dnn_270_bicycle_20_n03792782_40932.png
dino_v8,1,121,NaN,car,chair,270,0121_rot_dnn_270_chair_20_n04429376_44914.png
dino_v8,1,122,NaN,bear,bear,180,0122_rot_dnn_180_bear_20_n02134418_2122.png
dino_v8,1,123,NaN,chair,keyboard,90,0123_rot_dnn_90_keyboard_20_n03085013_22704.png
dino_v8,1,124,NaN,bicycle,truck,0,0124_rot_dnn_0_truck_20_n03417042_6838.png
dino_v8,1,125,NaN,knife,elephant,0,0125_rot_dnn_0_elephant_20_n02504458_3628.png
dino_v8,1,126,NaN,knife,cat,90,0126_rot_dnn_90_cat_20_n02123597_10141.png
dino_v8,1,127,NaN,knife,bicycle,0,0127_rot_dnn_0_bicycle_20_n02835271_6383.png
dino_v8,1,128,NaN,bicycle,car,180,0128_rot_dnn_180_car_20_n04285008_7154.png
dino_v8,1,129,NaN,clock,bird,0,0129_rot_dnn_0_bird_20_n02007558_1068.png
dino_v8,1,130,NaN,knife,cat,90,0130_rot_dnn_90_cat_20_n02125311_1896.png
dino_v8,1,131,NaN,knife,keyboard,0,0131_rot_dnn_0_keyboard_20_n04505470_1903.png
dino_v8,1,132,NaN,knife,bicycle,90,0132_rot_dnn_90_bicycle_20_n03792782_66159.png
dino_v8,1,133,NaN,knife,bear,90,0133_rot_dnn_90_bear_20_n02134418_5219.png
dino_v8,1,134,NaN,chair,car,90,0134_rot_dnn_90_car_20_n02814533_92229.png
dino_v8,1,135,NaN,knife,dog,90,0135_rot_dnn_90_dog_20_n02090721_1002.png
dino_v8,1,136,NaN,oven,truck,270,0136_rot_dnn_270_truck_20_n04467665_46263.png
dino_v8,1,137,NaN,bicycle,bottle,180,0137_rot_dnn_180_bottle_20_n03983396_704.png
dino_v8,1,138,NaN,chair,truck,180,0138_rot_dnn_180_truck_20_n03796401_4149.png
dino_v8,1,139,NaN,knife,bird,0,0139_rot_dnn_0_bird_20_n02006656_2030.png
dino_v8,1,140,NaN,knife,cat,90,0140_rot_dnn_90_cat_20_n02123394_234.png
dino_v8,1,141,NaN,bicycle,chair,90,0141_rot_dnn_90_chair_20_n04429376_19916.png
dino_v8,1,142,NaN,bear,truck,270,0142_rot_dnn_270_truck_20_n04467665_14024.png
dino_v8,1,143,NaN,airplane,chair,90,0143_rot_dnn_90_chair_20_n04429376_14729.png
dino_v8,1,144,NaN,bear,car,270,0144_rot_dnn_270_car_20_n02814533_82321.png
dino_v8,1,145,NaN,knife,clock,180,0145_rot_dnn_180_clock_20_n04548280_3701.png
dino_v8,1,146,NaN,cat,boat,270,0146_rot_dnn_270_boat_20_n02951358_11442.png
dino_v8,1,147,NaN,knife,bear,90,0147_rot_dnn_90_bear_20_n02132136_17349.png
dino_v8,1,148,NaN,clock,airplane,90,0148_rot_dnn_90_airplane_20_n02690373_4982.png
dino_v8,1,149,NaN,knife,airplane,0,0149_rot_dnn_0_airplane_20_n02690373_2232.png
dino_v8,1,150,NaN,chair,cat,180,0150_rot_dnn_180_cat_20_n02123045_909.png
dino_v8,1,151,NaN,clock,clock,180,0151_rot_dnn_180_clock_20_n04548280_1190.png
dino_v8,1,152,NaN,clock,oven,90,0152_rot_dnn_90_oven_20_n04111531_1855.png
dino_v8,1,153,NaN,chair,boat,270,0153_rot_dnn_270_boat_20_n03662601_21408.png
dino_v8,1,154,NaN,bicycle,dog,90,0154_rot_dnn_90_dog_20_n02088364_15877.png
dino_v8,1,155,NaN,boat,knife,90,0155_rot_dnn_90_knife_20_n03041632_15250.png
dino_v8,1,156,NaN,knife,oven,0,0156_rot_dnn_0_oven_20_n04111531_17006.png
dino_v8,1,157,NaN,boat,clock,90,0157_rot_dnn_90_clock_20_n04548280_11763.png
dino_v8,1,158,NaN,knife,bird,270,0158_rot_dnn_270_bird_20_n02028035_8327.png
dino_v8,1,159,NaN,bicycle,car,90,0159_rot_dnn_90_car_20_n04285008_5641.png
dino_v8,1,160,NaN,car,oven,90,0160_rot_dnn_90_oven_20_n04111531_10727.png
dino_v8,1,161,NaN,bicycle,elephant,270,0161_rot_dnn_270_elephant_20_n02504458_1971.png
dino_v8,1,162,NaN,bicycle,bottle,180,0162_rot_dnn_180_bottle_20_n04560804_15941.png
dino_v8,1,163,NaN,cat,elephant,0,0163_rot_dnn_0_elephant_20_n02504458_151.png
dino_v8,1,164,NaN,knife,bear,180,0164_rot_dnn_180_bear_20_n02133161_15427.png
dino_v8,1,165,NaN,chair,bear,180,0165_rot_dnn_180_bear_20_n02134084_20605.png
dino_v8,1,166,NaN,boat,bottle,90,0166_rot_dnn_90_bottle_20_n04560804_2693.png
dino_v8,1,167,NaN,knife,airplane,270,0167_rot_dnn_270_airplane_20_n02690373_8214.png
dino_v8,1,168,NaN,knife,boat,0,0168_rot_dnn_0_boat_20_n02951358_14966.png
dino_v8,1,169,NaN,boat,knife,90,0169_rot_dnn_90_knife_20_n03041632_14801.png
dino_v8,1,170,NaN,knife,dog,90,0170_rot_dnn_90_dog_20_n02110063_8776.png
dino_v8,1,171,NaN,bicycle,dog,180,0171_rot_dnn_180_dog_20_n02100236_7671.png
dino_v8,1,172,NaN,bicycle,oven,0,0172_rot_dnn_0_oven_20_n04111531_21248.png
dino_v8,1,173,NaN,cat,knife,270,0173_rot_dnn_270_knife_20_n03041632_17100.png
dino_v8,1,174,NaN,cat,knife,0,0174_rot_dnn_0_knife_20_n03041632_3781.png
dino_v8,1,175,NaN,bear,oven,270,0175_rot_dnn_270_oven_20_n04111531_46651.png
dino_v8,1,176,NaN,boat,clock,0,0176_rot_dnn_0_clock_20_n04548280_8303.png
dino_v8,1,177,NaN,clock,airplane,0,0177_rot_dnn_0_airplane_20_n02690373_2070.png
dino_v8,1,178,NaN,bear,car,180,0178_rot_dnn_180_car_20_n03100240_574.png
dino_v8,1,179,NaN,clock,dog,90,0179_rot_dnn_90_dog_20_n02095570_11263.png
dino_v8,1,180,NaN,oven,bottle,180,0180_rot_dnn_180_bottle_20_n03983396_9667.png
dino_v8,1,181,NaN,chair,clock,0,0181_rot_dnn_0_clock_20_n02708093_3535.png
dino_v8,1,182,NaN,knife,bird,180,0182_rot_dnn_180_bird_20_n01531178_17239.png
dino_v8,1,183,NaN,chair,elephant,180,0183_rot_dnn_180_elephant_20_n02504458_2272.png
dino_v8,1,184,NaN,knife,knife,90,0184_rot_dnn_90_knife_20_n03041632_50648.png
dino_v8,1,185,NaN,keyboard,knife,0,0185_rot_dnn_0_knife_20_n03041632_33225.png
dino_v8,1,186,NaN,elephant,airplane,0,0186_rot_dnn_0_airplane_20_n02690373_736.png
dino_v8,1,187,NaN,elephant,knife,270,0187_rot_dnn_270_knife_20_n03041632_2546.png
dino_v8,1,188,NaN,knife,boat,180,0188_rot_dnn_180_boat_20_n04273569_13053.png
dino_v8,1,189,NaN,bottle,airplane,180,0189_rot_dnn_180_airplane_20_n02690373_3588.png
dino_v8,1,190,NaN,knife,keyboard,0,0190_rot_dnn_0_keyboard_20_n03085013_21004.png
dino_v8,1,191,NaN,chair,boat,180,0191_rot_dnn_180_boat_20_n03662601_16627.png
dino_v8,1,192,NaN,boat,bird,180,0192_rot_dnn_180_bird_20_n02017213_6478.png
dino_v8,1,193,NaN,knife,bear,90,0193_rot_dnn_90_bear_20_n02134418_998.png
dino_v8,1,194,NaN,keyboard,truck,90,0194_rot_dnn_90_truck_20_n04467665_71055.png
dino_v8,1,195,NaN,chair,car,90,0195_rot_dnn_90_car_20_n02814533_23979.png
dino_v8,1,196,NaN,oven,elephant,180,0196_rot_dnn_180_elephant_20_n02504458_6805.png
dino_v8,1,197,NaN,chair,clock,90,0197_rot_dnn_90_clock_20_n04548280_4841.png
dino_v8,1,198,NaN,elephant,boat,90,0198_rot_dnn_90_boat_20_n03662601_6832.png
dino_v8,1,199,NaN,bicycle,oven,270,0199_rot_dnn_270_oven_20_n04111531_766.png
dino_v8,1,200,NaN,knife,clock,0,0200_rot_dnn_0_clock_20_n04548280_1305.png
dino_v8,1,201,NaN,chair,bicycle,0,0201_rot_dnn_0_bicycle_20_n03792782_19083.png
dino_v8,1,202,NaN,knife,bird,90,0202_rot_dnn_90_bird_20_n01860187_20081.png
dino_v8,1,203,NaN,truck,oven,0,0203_rot_dnn_0_oven_20_n04111531_4817.png
dino_v8,1,204,NaN,knife,car,180,0204_rot_dnn_180_car_20_n02814533_33360.png
dino_v8,1,205,NaN,knife,clock,270,0205_rot_dnn_270_clock_20_n04548280_4035.png
dino_v8,1,206,NaN,knife,keyboard,270,0206_rot_dnn_270_keyboard_20_n03085013_7879.png
dino_v8,1,207,NaN,knife,airplane,0,0207_rot_dnn_0_airplane_20_n02690373_2598.png
dino_v8,1,208,NaN,knife,cat,180,0208_rot_dnn_180_cat_20_n02123045_436.png
dino_v8,1,209,NaN,airplane,airplane,270,0209_rot_dnn_270_airplane_20_n02690373_813.png
dino_v8,1,210,NaN,knife,cat,0,0210_rot_dnn_0_cat_20_n02123159_1008.png
dino_v8,1,211,NaN,bicycle,bottle,90,0211_rot_dnn_90_bottle_20_n03983396_5452.png
dino_v8,1,212,NaN,chair,dog,90,0212_rot_dnn_90_dog_20_n02090379_13010.png
dino_v8,1,213,NaN,keyboard,chair,180,0213_rot_dnn_180_chair_20_n04099969_4162.png
dino_v8,1,214,NaN,car,keyboard,270,0214_rot_dnn_270_keyboard_20_n04505470_206.png
dino_v8,1,215,NaN,knife,cat,0,0215_rot_dnn_0_cat_20_n02123045_5290.png
dino_v8,1,216,NaN,cat,bird,180,0216_rot_dnn_180_bird_20_n01843383_6001.png
dino_v8,1,217,NaN,chair,knife,0,0217_rot_dnn_0_knife_20_n03041632_24376.png
dino_v8,1,218,NaN,knife,bicycle,90,0218_rot_dnn_90_bicycle_20_n02835271_2915.png
dino_v8,1,219,NaN,knife,bicycle,0,0219_rot_dnn_0_bicycle_20_n03792782_5517.png
dino_v8,1,220,NaN,knife,bicycle,90,0220_rot_dnn_90_bicycle_20_n02835271_7053.png
dino_v8,1,221,NaN,bicycle,clock,180,0221_rot_dnn_180_clock_20_n04548280_7115.png
dino_v8,1,222,NaN,clock,boat,270,0222_rot_dnn_270_boat_20_n04273569_29866.png
dino_v8,1,223,NaN,airplane,clock,90,0223_rot_dnn_90_clock_20_n02708093_3623.png
dino_v8,1,224,NaN,car,bear,180,0224_rot_dnn_180_bear_20_n02132136_7468.png
dino_v8,1,225,NaN,knife,cat,0,0225_rot_dnn_0_cat_20_n02123159_2137.png
dino_v8,1,226,NaN,knife,bottle,90,0226_rot_dnn_90_bottle_20_n03937543_5257.png
dino_v8,1,227,NaN,knife,cat,0,0227_rot_dnn_0_cat_20_n02123394_937.png
dino_v8,1,228,NaN,bicycle,boat,0,0228_rot_dnn_0_boat_20_n03662601_11764.png
dino_v8,1,229,NaN,knife,bear,0,0229_rot_dnn_0_bear_20_n02132136_10412.png
dino_v8,1,230,NaN,knife,clock,270,0230_rot_dnn_270_clock_20_n03196217_3600.png
dino_v8,1,231,NaN,knife,dog,270,0231_rot_dnn_270_dog_20_n02102177_255.png
dino_v8,1,232,NaN,knife,bird,270,0232_rot_dnn_270_bird_20_n01614925_1860.png
dino_v8,1,233,NaN,airplane,airplane,180,0233_rot_dnn_180_airplane_20_n02690373_1021.png
dino_v8,1,234,NaN,knife,chair,180,0234_rot_dnn_180_chair_20_n03376595_9079.png
dino_v8,1,235,NaN,knife,chair,90,0235_rot_dnn_90_chair_20_n02791124_5199.png
dino_v8,1,236,NaN,knife,keyboard,90,0236_rot_dnn_90_keyboard_20_n03085013_24294.png
dino_v8,1,237,NaN,knife,cat,0,0237_rot_dnn_0_cat_20_n02123597_13286.png
dino_v8,1,238,NaN,elephant,bird,180,0238_rot_dnn_180_bird_20_n01560419_17392.png
dino_v8,1,239,NaN,keyboard,oven,270,0239_rot_dnn_270_oven_20_n04111531_6934.png
dino_v8,1,240,NaN,knife,clock,90,0240_rot_dnn_90_clock_20_n03196217_6707.png
dino_v8,1,241,NaN,keyboard,knife,180,0241_rot_dnn_180_knife_20_n03041632_15174.png
dino_v8,1,242,NaN,oven,oven,180,0242_rot_dnn_180_oven_20_n04111531_13644.png
dino_v8,1,243,NaN,knife,elephant,0,0243_rot_dnn_0_elephant_20_n02504458_3458.png
dino_v8,1,244,NaN,knife,clock,90,0244_rot_dnn_90_clock_20_n04548280_18914.png
dino_v8,1,245,NaN,knife,dog,180,0245_rot_dnn_180_dog_20_n02107908_2754.png
dino_v8,1,246,NaN,knife,airplane,0,0246_rot_dnn_0_airplane_20_n02690373_1306.png
dino_v8,1,247,NaN,bicycle,chair,90,0247_rot_dnn_90_chair_20_n03376595_10266.png
dino_v8,1,248,NaN,car,keyboard,270,0248_rot_dnn_270_keyboard_20_n04505470_1416.png
dino_v8,1,249,NaN,knife,clock,180,0249_rot_dnn_180_clock_20_n04548280_4686.png
dino_v8,1,250,NaN,airplane,truck,270,0250_rot_dnn_270_truck_20_n04467665_69882.png
dino_v8,1,251,NaN,bicycle,bottle,270,0251_rot_dnn_270_bottle_20_n04591713_2123.png
dino_v8,1,252,NaN,bicycle,oven,90,0252_rot_dnn_90_oven_20_n04111531_6933.png
dino_v8,1,253,NaN,knife,car,270,0253_rot_dnn_270_car_20_n03100240_8898.png
dino_v8,1,254,NaN,chair,elephant,180,0254_rot_dnn_180_elephant_20_n02504458_5277.png
dino_v8,1,255,NaN,boat,truck,270,0255_rot_dnn_270_truck_20_n03417042_9967.png
dino_v8,1,256,NaN,knife,bear,0,0256_rot_dnn_0_bear_20_n02134418_1017.png
dino_v8,1,257,NaN,bicycle,airplane,90,0257_rot_dnn_90_airplane_20_n02690373_1909.png
dino_v8,1,258,NaN,knife,airplane,0,0258_rot_dnn_0_airplane_20_n02690373_6753.png
dino_v8,1,259,NaN,bicycle,airplane,0,0259_rot_dnn_0_airplane_20_n02690373_1972.png
dino_v8,1,260,NaN,chair,oven,90,0260_rot_dnn_90_oven_20_n04111531_9915.png
dino_v8,1,261,NaN,bicycle,elephant,270,0261_rot_dnn_270_elephant_20_n02504458_485.png
dino_v8,1,262,NaN,chair,elephant,180,0262_rot_dnn_180_elephant_20_n02504013_2431.png
dino_v8,1,263,NaN,knife,clock,180,0263_rot_dnn_180_clock_20_n02708093_1038.png
dino_v8,1,264,NaN,knife,cat,270,0264_rot_dnn_270_cat_20_n02123597_5927.png
dino_v8,1,265,NaN,knife,bicycle,90,0265_rot_dnn_90_bicycle_20_n03792782_3202.png
dino_v8,1,266,NaN,chair,car,270,0266_rot_dnn_270_car_20_n02814533_45480.png
dino_v8,1,267,NaN,airplane,truck,90,0267_rot_dnn_90_truck_20_n03796401_4571.png
dino_v8,1,268,NaN,clock,oven,90,0268_rot_dnn_90_oven_20_n04111531_21011.png
dino_v8,1,269,NaN,knife,airplane,0,0269_rot_dnn_0_airplane_20_n02690373_4310.png
dino_v8,1,270,NaN,clock,oven,0,0270_rot_dnn_0_oven_20_n04111531_7134.png
dino_v8,1,271,NaN,bicycle,dog,270,0271_rot_dnn_270_dog_20_n02105251_1092.png
dino_v8,1,272,NaN,bear,knife,180,0272_rot_dnn_180_knife_20_n03041632_34505.png
dino_v8,1,273,NaN,knife,keyboard,90,0273_rot_dnn_90_keyboard_20_n04505470_4520.png
dino_v8,1,274,NaN,cat,boat,180,0274_rot_dnn_180_boat_20_n03344393_1519.png
dino_v8,1,275,NaN,boat,chair,270,0275_rot_dnn_270_chair_20_n03376595_9535.png
dino_v8,1,276,NaN,knife,cat,270,0276_rot_dnn_270_cat_20_n02125311_1326.png
dino_v8,1,277,NaN,knife,cat,90,0277_rot_dnn_90_cat_20_n02123394_2948.png
dino_v8,1,278,NaN,chair,oven,270,0278_rot_dnn_270_oven_20_n04111531_5429.png
dino_v8,1,279,NaN,clock,elephant,0,0279_rot_dnn_0_elephant_20_n02504013_6645.png
dino_v8,1,280,NaN,car,keyboard,90,0280_rot_dnn_90_keyboard_20_n04505470_4159.png
dino_v8,1,281,NaN,bicycle,bottle,90,0281_rot_dnn_90_bottle_20_n02823428_6252.png
dino_v8,1,282,NaN,boat,airplane,180,0282_rot_dnn_180_airplane_20_n02690373_15097.png
dino_v8,1,283,NaN,chair,cat,0,0283_rot_dnn_0_cat_20_n02123159_3420.png
dino_v8,1,284,NaN,knife,cat,0,0284_rot_dnn_0_cat_20_n02124075_7835.png
dino_v8,1,285,NaN,knife,cat,90,0285_rot_dnn_90_cat_20_n02123045_6696.png
dino_v8,1,286,NaN,chair,boat,180,0286_rot_dnn_180_boat_20_n02951358_34766.png
dino_v8,1,287,NaN,chair,bird,0,0287_rot_dnn_0_bird_20_n01855672_8191.png
dino_v8,1,288,NaN,elephant,truck,180,0288_rot_dnn_180_truck_20_n03796401_1150.png
dino_v8,1,289,NaN,knife,bicycle,270,0289_rot_dnn_270_bicycle_20_n03792782_9782.png
dino_v8,1,290,NaN,elephant,boat,270,0290_rot_dnn_270_boat_20_n03662601_12969.png
dino_v8,1,291,NaN,keyboard,bottle,180,0291_rot_dnn_180_bottle_20_n02823428_4530.png
dino_v8,1,292,NaN,clock,chair,0,0292_rot_dnn_0_chair_20_n02791124_2898.png
dino_v8,1,293,NaN,knife,cat,270,0293_rot_dnn_270_cat_20_n02123394_686.png
dino_v8,1,294,NaN,keyboard,dog,180,0294_rot_dnn_180_dog_20_n02100735_4364.png
dino_v8,1,295,NaN,keyboard,dog,0,0295_rot_dnn_0_dog_20_n02102177_7968.png
dino_v8,1,296,NaN,elephant,knife,270,0296_rot_dnn_270_knife_20_n03041632_15099.png
dino_v8,1,297,NaN,bear,oven,180,0297_rot_dnn_180_oven_20_n04111531_2937.png
dino_v8,1,298,NaN,oven,cat,0,0298_rot_dnn_0_cat_20_n02123394_3695.png
dino_v8,1,299,NaN,knife,bear,180,0299_rot_dnn_180_bear_20_n02134084_3696.png
dino_v8,1,300,NaN,knife,oven,270,0300_rot_dnn_270_oven_20_n04111531_4671.png
dino_v8,1,301,NaN,chair,bear,180,0301_rot_dnn_180_bear_20_n02133161_2741.png
dino_v8,1,302,NaN,airplane,boat,90,0302_rot_dnn_90_boat_20_n03662601_3893.png
dino_v8,1,303,NaN,car,boat,90,0303_rot_dnn_90_boat_20_n03344393_2790.png
dino_v8,1,304,NaN,knife,keyboard,180,0304_rot_dnn_180_keyboard_20_n03085013_3920.png
dino_v8,1,305,NaN,chair,chair,90,0305_rot_dnn_90_chair_20_n04099969_1962.png
dino_v8,1,306,NaN,knife,knife,0,0306_rot_dnn_0_knife_20_n03041632_13846.png
dino_v8,1,307,NaN,clock,boat,0,0307_rot_dnn_0_boat_20_n02951358_30117.png
dino_v8,1,308,NaN,chair,elephant,270,0308_rot_dnn_270_elephant_20_n02504458_9922.png
dino_v8,1,309,NaN,chair,boat,180,0309_rot_dnn_180_boat_20_n03344393_5609.png
dino_v8,1,310,NaN,bicycle,chair,0,0310_rot_dnn_0_chair_20_n02791124_3180.png
dino_v8,1,311,NaN,keyboard,boat,90,0311_rot_dnn_90_boat_20_n02951358_12532.png
dino_v8,1,312,NaN,knife,cat,180,0312_rot_dnn_180_cat_20_n02123597_1901.png
dino_v8,1,313,NaN,bicycle,elephant,270,0313_rot_dnn_270_elephant_20_n02504013_5173.png
dino_v8,1,314,NaN,chair,car,180,0314_rot_dnn_180_car_20_n04285008_4834.png
dino_v8,1,315,NaN,bicycle,truck,270,0315_rot_dnn_270_truck_20_n03417042_28584.png
dino_v8,1,316,NaN,clock,dog,180,0316_rot_dnn_180_dog_20_n02093428_11151.png
dino_v8,1,317,NaN,knife,bicycle,90,0317_rot_dnn_90_bicycle_20_n03792782_1475.png
dino_v8,1,318,NaN,chair,knife,0,0318_rot_dnn_0_knife_20_n03041632_8666.png
dino_v8,1,319,NaN,elephant,clock,0,0319_rot_dnn_0_clock_20_n04548280_253.png
dino_v8,1,320,NaN,clock,airplane,180,0320_rot_dnn_180_airplane_20_n02690373_9441.png
dino_v8,1,321,NaN,dog,airplane,270,0321_rot_dnn_270_airplane_20_n02690373_1946.png
dino_v8,1,322,NaN,keyboard,car,90,0322_rot_dnn_90_car_20_n03100240_5044.png
dino_v8,1,323,NaN,knife,dog,270,0323_rot_dnn_270_dog_20_n02111500_6559.png
dino_v8,1,324,NaN,knife,dog,270,0324_rot_dnn_270_dog_20_n02096051_1852.png
dino_v8,1,325,NaN,knife,bear,270,0325_rot_dnn_270_bear_20_n02133161_5020.png
dino_v8,1,326,NaN,bicycle,chair,90,0326_rot_dnn_90_chair_20_n02791124_2034.png
dino_v8,1,327,NaN,bear,clock,180,0327_rot_dnn_180_clock_20_n03196217_6526.png
dino_v8,1,328,NaN,clock,oven,180,0328_rot_dnn_180_oven_20_n04111531_9779.png
dino_v8,1,329,NaN,elephant,boat,0,0329_rot_dnn_0_boat_20_n03662601_28640.png
dino_v8,1,330,NaN,knife,knife,90,0330_rot_dnn_90_knife_20_n03041632_31301.png
dino_v8,1,331,NaN,knife,keyboard,90,0331_rot_dnn_90_keyboard_20_n03085013_9209.png
dino_v8,1,332,NaN,cat,elephant,90,0332_rot_dnn_90_elephant_20_n02504458_113.png
dino_v8,1,333,NaN,bicycle,bicycle,180,0333_rot_dnn_180_bicycle_20_n03792782_6058.png
dino_v8,1,334,NaN,dog,keyboard,0,0334_rot_dnn_0_keyboard_20_n04505470_4651.png
dino_v8,1,335,NaN,truck,keyboard,180,0335_rot_dnn_180_keyboard_20_n03085013_7009.png
dino_v8,1,336,NaN,elephant,truck,270,0336_rot_dnn_270_truck_20_n04467665_44390.png
dino_v8,1,337,NaN,knife,boat,90,0337_rot_dnn_90_boat_20_n04273569_17340.png
dino_v8,1,338,NaN,bicycle,elephant,0,0338_rot_dnn_0_elephant_20_n02504013_1333.png
dino_v8,1,339,NaN,oven,knife,270,0339_rot_dnn_270_knife_20_n03041632_50034.png
dino_v8,1,340,NaN,airplane,clock,90,0340_rot_dnn_90_clock_20_n02708093_2740.png
dino_v8,1,341,NaN,knife,bear,0,0341_rot_dnn_0_bear_20_n02132136_13975.png
dino_v8,1,342,NaN,bicycle,elephant,90,0342_rot_dnn_90_elephant_20_n02504013_256.png
dino_v8,1,343,NaN,chair,boat,90,0343_rot_dnn_90_boat_20_n03344393_6588.png
dino_v8,1,344,NaN,keyboard,knife,270,0344_rot_dnn_270_knife_20_n03041632_7173.png
dino_v8,1,345,NaN,chair,elephant,180,0345_rot_dnn_180_elephant_20_n02504458_1041.png
dino_v8,1,346,NaN,knife,chair,180,0346_rot_dnn_180_chair_20_n04099969_8021.png
dino_v8,1,347,NaN,bicycle,truck,0,0347_rot_dnn_0_truck_20_n03796401_1791.png
dino_v8,1,348,NaN,keyboard,keyboard,90,0348_rot_dnn_90_keyboard_20_n04505470_5007.png
dino_v8,1,349,NaN,airplane,truck,180,0349_rot_dnn_180_truck_20_n03417042_29384.png
dino_v8,1,350,NaN,knife,bird,90,0350_rot_dnn_90_bird_20_n01534433_1271.png
dino_v8,1,351,NaN,cat,dog,270,0351_rot_dnn_270_dog_20_n02113624_393.png
dino_v8,1,352,NaN,knife,cat,90,0352_rot_dnn_90_cat_20_n02123159_5461.png
dino_v8,1,353,NaN,airplane,knife,270,0353_rot_dnn_270_knife_20_n03041632_9759.png
dino_v8,1,354,NaN,boat,chair,90,0354_rot_dnn_90_chair_20_n04429376_1754.png
dino_v8,1,355,NaN,oven,oven,90,0355_rot_dnn_90_oven_20_n04111531_1818.png
dino_v8,1,356,NaN,car,clock,0,0356_rot_dnn_0_clock_20_n04548280_5798.png
dino_v8,1,357,NaN,clock,oven,90,0357_rot_dnn_90_oven_20_n04111531_3099.png
dino_v8,1,358,NaN,knife,bottle,270,0358_rot_dnn_270_bottle_20_n04557648_581.png
dino_v8,1,359,NaN,knife,bird,0,0359_rot_dnn_0_bird_20_n01531178_3183.png
dino_v8,1,360,NaN,knife,airplane,90,0360_rot_dnn_90_airplane_20_n02690373_8872.png
dino_v8,1,361,NaN,oven,cat,0,0361_rot_dnn_0_cat_20_n02123394_5301.png
dino_v8,1,362,NaN,knife,bicycle,270,0362_rot_dnn_270_bicycle_20_n03792782_12844.png
dino_v8,1,363,NaN,airplane,bear,90,0363_rot_dnn_90_bear_20_n02132136_2691.png
dino_v8,1,364,NaN,keyboard,car,0,0364_rot_dnn_0_car_20_n02814533_27327.png
dino_v8,1,365,NaN,clock,bird,0,0365_rot_dnn_0_bird_20_n02027492_7653.png
dino_v8,1,366,NaN,knife,bear,0,0366_rot_dnn_0_bear_20_n02133161_62.png
dino_v8,1,367,NaN,knife,bottle,0,0367_rot_dnn_0_bottle_20_n04560804_9710.png
dino_v8,1,368,NaN,elephant,clock,180,0368_rot_dnn_180_clock_20_n04548280_15154.png
dino_v8,1,369,NaN,keyboard,oven,180,0369_rot_dnn_180_oven_20_n04111531_114.png
dino_v8,1,370,NaN,knife,cat,180,0370_rot_dnn_180_cat_20_n02125311_24813.png
dino_v8,1,371,NaN,chair,airplane,90,0371_rot_dnn_90_airplane_20_n02690373_7647.png
dino_v8,1,372,NaN,bear,bottle,0,0372_rot_dnn_0_bottle_20_n03983396_9823.png
dino_v8,1,373,NaN,knife,bear,0,0373_rot_dnn_0_bear_20_n02134418_2398.png
dino_v8,1,374,NaN,bear,keyboard,90,0374_rot_dnn_90_keyboard_20_n04505470_4584.png
dino_v8,1,375,NaN,car,keyboard,0,0375_rot_dnn_0_keyboard_20_n04505470_10055.png
dino_v8,1,376,NaN,bottle,boat,270,0376_rot_dnn_270_boat_20_n04273569_10980.png
dino_v8,1,377,NaN,chair,car,180,0377_rot_dnn_180_car_20_n03100240_16210.png
dino_v8,1,378,NaN,knife,keyboard,0,0378_rot_dnn_0_keyboard_20_n04505470_1067.png
dino_v8,1,379,NaN,knife,elephant,0,0379_rot_dnn_0_elephant_20_n02504458_7867.png
dino_v8,1,380,NaN,clock,keyboard,180,0380_rot_dnn_180_keyboard_20_n04505470_807.png
dino_v8,1,381,NaN,knife,bicycle,270,0381_rot_dnn_270_bicycle_20_n02835271_24104.png
dino_v8,1,382,NaN,boat,bottle,0,0382_rot_dnn_0_bottle_20_n03937543_6698.png
dino_v8,1,383,NaN,knife,oven,0,0383_rot_dnn_0_oven_20_n04111531_10403.png
dino_v8,1,384,NaN,bicycle,truck,0,0384_rot_dnn_0_truck_20_n03796401_8463.png
dino_v8,1,385,NaN,airplane,truck,0,0385_rot_dnn_0_truck_20_n03796401_8176.png
dino_v8,1,386,NaN,knife,bottle,90,0386_rot_dnn_90_bottle_20_n03937543_984.png
dino_v8,1,387,NaN,knife,bicycle,90,0387_rot_dnn_90_bicycle_20_n02835271_11697.png
dino_v8,1,388,NaN,bear,keyboard,270,0388_rot_dnn_270_keyboard_20_n03085013_22417.png
dino_v8,1,389,NaN,car,car,270,0389_rot_dnn_270_car_20_n03100240_7602.png
dino_v8,1,390,NaN,knife,bird,90,0390_rot_dnn_90_bird_20_n01534433_14389.png
dino_v8,1,391,NaN,clock,bear,0,0391_rot_dnn_0_bear_20_n02134084_2598.png
dino_v8,1,392,NaN,elephant,bird,180,0392_rot_dnn_180_bird_20_n01560419_19599.png
dino_v8,1,393,NaN,dog,bicycle,90,0393_rot_dnn_90_bicycle_20_n02835271_8747.png
dino_v8,1,394,NaN,bear,knife,180,0394_rot_dnn_180_knife_20_n03041632_30821.png
dino_v8,1,395,NaN,car,chair,270,0395_rot_dnn_270_chair_20_n03376595_209.png
dino_v8,1,396,NaN,chair,boat,180,0396_rot_dnn_180_boat_20_n04273569_29113.png
dino_v8,1,397,NaN,knife,bird,270,0397_rot_dnn_270_bird_20_n02006656_6435.png
dino_v8,1,398,NaN,airplane,airplane,90,0398_rot_dnn_90_airplane_20_n02690373_3492.png
dino_v8,1,399,NaN,bicycle,oven,270,0399_rot_dnn_270_oven_20_n04111531_9380.png
dino_v8,1,400,NaN,elephant,keyboard,270,0400_rot_dnn_270_keyboard_20_n04505470_510.png
dino_v8,1,401,NaN,knife,bird,180,0401_rot_dnn_180_bird_20_n02027492_20576.png
dino_v8,1,402,NaN,bottle,bird,90,0402_rot_dnn_90_bird_20_n01855032_1920.png
dino_v8,1,403,NaN,chair,boat,180,0403_rot_dnn_180_boat_20_n04273569_15761.png
dino_v8,1,404,NaN,cat,oven,180,0404_rot_dnn_180_oven_20_n04111531_10667.png
dino_v8,1,405,NaN,knife,knife,270,0405_rot_dnn_270_knife_20_n03041632_36215.png
dino_v8,1,406,NaN,knife,bicycle,180,0406_rot_dnn_180_bicycle_20_n02835271_2625.png
dino_v8,1,407,NaN,knife,bird,270,0407_rot_dnn_270_bird_20_n02028035_20411.png
dino_v8,1,408,NaN,knife,knife,0,0408_rot_dnn_0_knife_20_n03041632_25656.png
dino_v8,1,409,NaN,knife,oven,270,0409_rot_dnn_270_oven_20_n04111531_4332.png
dino_v8,1,410,NaN,keyboard,keyboard,180,0410_rot_dnn_180_keyboard_20_n04505470_3553.png
dino_v8,1,411,NaN,knife,bicycle,180,0411_rot_dnn_180_bicycle_20_n02835271_18706.png
dino_v8,1,412,NaN,airplane,truck,270,0412_rot_dnn_270_truck_20_n03417042_10744.png
dino_v8,1,413,NaN,elephant,clock,0,0413_rot_dnn_0_clock_20_n03196217_11724.png
dino_v8,1,414,NaN,knife,bicycle,270,0414_rot_dnn_270_bicycle_20_n02835271_14123.png
dino_v8,1,415,NaN,bicycle,bicycle,270,0415_rot_dnn_270_bicycle_20_n02835271_7900.png
dino_v8,1,416,NaN,clock,truck,270,0416_rot_dnn_270_truck_20_n03417042_2153.png
dino_v8,1,417,NaN,elephant,bicycle,270,0417_rot_dnn_270_bicycle_20_n03792782_10129.png
dino_v8,1,418,NaN,knife,bird,180,0418_rot_dnn_180_bird_20_n01514859_18430.png
dino_v8,1,419,NaN,knife,chair,0,0419_rot_dnn_0_chair_20_n04099969_5010.png
dino_v8,1,420,NaN,clock,truck,0,0420_rot_dnn_0_truck_20_n03796401_588.png
dino_v8,1,421,NaN,knife,car,0,0421_rot_dnn_0_car_20_n02814533_486.png
dino_v8,1,422,NaN,chair,elephant,90,0422_rot_dnn_90_elephant_20_n02504013_3540.png
dino_v8,1,423,NaN,knife,car,180,0423_rot_dnn_180_car_20_n02814533_55715.png
dino_v8,1,424,NaN,airplane,bottle,180,0424_rot_dnn_180_bottle_20_n03983396_10896.png
dino_v8,1,425,NaN,knife,bottle,90,0425_rot_dnn_90_bottle_20_n04557648_15053.png
dino_v8,1,426,NaN,chair,car,0,0426_rot_dnn_0_car_20_n04285008_8281.png
dino_v8,1,427,NaN,bottle,car,270,0427_rot_dnn_270_car_20_n02814533_38596.png
dino_v8,1,428,NaN,chair,elephant,270,0428_rot_dnn_270_elephant_20_n02504013_15219.png
dino_v8,1,429,NaN,oven,elephant,180,0429_rot_dnn_180_elephant_20_n02504013_828.png
dino_v8,1,430,NaN,airplane,oven,180,0430_rot_dnn_180_oven_20_n04111531_1439.png
dino_v8,1,431,NaN,airplane,bottle,90,0431_rot_dnn_90_bottle_20_n03983396_3315.png
dino_v8,1,432,NaN,bicycle,airplane,90,0432_rot_dnn_90_airplane_20_n02690373_4024.png
dino_v8,1,433,NaN,keyboard,elephant,270,0433_rot_dnn_270_elephant_20_n02504013_10301.png
dino_v8,1,434,NaN,boat,oven,180,0434_rot_dnn_180_oven_20_n04111531_7067.png
dino_v8,1,435,NaN,keyboard,knife,90,0435_rot_dnn_90_knife_20_n03041632_36834.png
dino_v8,1,436,NaN,car,car,90,0436_rot_dnn_90_car_20_n02814533_18148.png
dino_v8,1,437,NaN,knife,cat,90,0437_rot_dnn_90_cat_20_n02125311_41284.png
dino_v8,1,438,NaN,knife,bicycle,0,0438_rot_dnn_0_bicycle_20_n02835271_18188.png
dino_v8,1,439,NaN,bicycle,bottle,0,0439_rot_dnn_0_bottle_20_n04591713_2903.png
dino_v8,1,440,NaN,boat,knife,0,0440_rot_dnn_0_knife_20_n03041632_54191.png
dino_v8,1,441,NaN,bear,truck,180,0441_rot_dnn_180_truck_20_n03417042_8867.png
dino_v8,1,442,NaN,airplane,oven,270,0442_rot_dnn_270_oven_20_n04111531_8421.png
dino_v8,1,443,NaN,bicycle,elephant,270,0443_rot_dnn_270_elephant_20_n02504013_4062.png
dino_v8,1,444,NaN,knife,keyboard,270,0444_rot_dnn_270_keyboard_20_n04505470_1649.png
dino_v8,1,445,NaN,clock,boat,180,0445_rot_dnn_180_boat_20_n03344393_7967.png
dino_v8,1,446,NaN,knife,bicycle,0,0446_rot_dnn_0_bicycle_20_n02835271_10265.png
dino_v8,1,447,NaN,boat,bicycle,180,0447_rot_dnn_180_bicycle_20_n02835271_6742.png
dino_v8,1,448,NaN,knife,cat,180,0448_rot_dnn_180_cat_20_n02123045_3168.png
dino_v8,1,449,NaN,keyboard,car,180,0449_rot_dnn_180_car_20_n03100240_8489.png
dino_v8,1,450,NaN,bear,oven,270,0450_rot_dnn_270_oven_20_n04111531_1826.png
dino_v8,1,451,NaN,chair,dog,180,0451_rot_dnn_180_dog_20_n02104365_1592.png
dino_v8,1,452,NaN,bicycle,boat,90,0452_rot_dnn_90_boat_20_n02951358_4343.png
dino_v8,1,453,NaN,clock,bottle,0,0453_rot_dnn_0_bottle_20_n02823428_4282.png
dino_v8,1,454,NaN,knife,bird,0,0454_rot_dnn_0_bird_20_n01817953_2043.png
dino_v8,1,455,NaN,oven,dog,0,0455_rot_dnn_0_dog_20_n02110958_14369.png
dino_v8,1,456,NaN,knife,dog,270,0456_rot_dnn_270_dog_20_n02108000_1044.png
dino_v8,1,457,NaN,bottle,dog,270,0457_rot_dnn_270_dog_20_n02087394_1428.png
dino_v8,1,458,NaN,airplane,airplane,90,0458_rot_dnn_90_airplane_20_n02690373_2856.png
dino_v8,1,459,NaN,cat,chair,0,0459_rot_dnn_0_chair_20_n03376595_19165.png
dino_v8,1,460,NaN,clock,chair,270,0460_rot_dnn_270_chair_20_n04099969_42125.png
dino_v8,1,461,NaN,bicycle,bottle,270,0461_rot_dnn_270_bottle_20_n02823428_12656.png
dino_v8,1,462,NaN,knife,bicycle,180,0462_rot_dnn_180_bicycle_20_n02835271_5861.png
dino_v8,1,463,NaN,knife,airplane,90,0463_rot_dnn_90_airplane_20_n02690373_19345.png
dino_v8,1,464,NaN,knife,clock,90,0464_rot_dnn_90_clock_20_n02708093_8069.png
dino_v8,1,465,NaN,knife,chair,270,0465_rot_dnn_270_chair_20_n04099969_16.png
dino_v8,1,466,NaN,knife,dog,270,0466_rot_dnn_270_dog_20_n02104365_1756.png
dino_v8,1,467,NaN,elephant,bird,270,0467_rot_dnn_270_bird_20_n01819313_17231.png
dino_v8,1,468,NaN,keyboard,car,90,0468_rot_dnn_90_car_20_n02814533_34149.png
dino_v8,1,469,NaN,knife,knife,0,0469_rot_dnn_0_knife_20_n03041632_26053.png
dino_v8,1,470,NaN,bear,oven,0,0470_rot_dnn_0_oven_20_n04111531_11287.png
dino_v8,1,471,NaN,knife,bottle,0,0471_rot_dnn_0_bottle_20_n03937543_11959.png
dino_v8,1,472,NaN,bicycle,airplane,270,0472_rot_dnn_270_airplane_20_n02690373_1348.png
dino_v8,1,473,NaN,knife,bear,0,0473_rot_dnn_0_bear_20_n02132136_5175.png
dino_v8,1,474,NaN,knife,keyboard,270,0474_rot_dnn_270_keyboard_20_n03085013_7382.png
dino_v8,1,475,NaN,knife,dog,270,0475_rot_dnn_270_dog_20_n02109961_4280.png
dino_v8,1,476,NaN,oven,truck,90,0476_rot_dnn_90_truck_20_n03417042_1344.png
dino_v8,1,477,NaN,cat,elephant,0,0477_rot_dnn_0_elephant_20_n02504013_9299.png
dino_v8,1,478,NaN,knife,bear,0,0478_rot_dnn_0_bear_20_n02134418_5527.png
dino_v8,1,479,NaN,chair,keyboard,270,0479_rot_dnn_270_keyboard_20_n03085013_23109.png
dino_v8,1,480,NaN,knife,bear,180,0480_rot_dnn_180_bear_20_n02133161_4393.png
dino_v8,1,481,NaN,bicycle,oven,0,0481_rot_dnn_0_oven_20_n04111531_73.png
dino_v8,1,482,NaN,airplane,keyboard,0,0482_rot_dnn_0_keyboard_20_n03085013_7613.png
dino_v8,1,483,NaN,truck,oven,180,0483_rot_dnn_180_oven_20_n04111531_2795.png
dino_v8,1,484,NaN,knife,oven,0,0484_rot_dnn_0_oven_20_n04111531_22517.png
dino_v8,1,485,NaN,bear,elephant,90,0485_rot_dnn_90_elephant_20_n02504458_2613.png
dino_v8,1,486,NaN,knife,oven,180,0486_rot_dnn_180_oven_20_n04111531_9176.png
dino_v8,1,487,NaN,airplane,bottle,180,0487_rot_dnn_180_bottle_20_n04557648_5790.png
dino_v8,1,488,NaN,bicycle,truck,90,0488_rot_dnn_90_truck_20_n04467665_9812.png
dino_v8,1,489,NaN,keyboard,bottle,0,0489_rot_dnn_0_bottle_20_n04591713_7476.png
dino_v8,1,490,NaN,knife,elephant,90,0490_rot_dnn_90_elephant_20_n02504458_1567.png
dino_v8,1,491,NaN,knife,clock,90,0491_rot_dnn_90_clock_20_n04548280_6865.png
dino_v8,1,492,NaN,knife,bottle,180,0492_rot_dnn_180_bottle_20_n02823428_3.png
dino_v8,1,493,NaN,elephant,boat,90,0493_rot_dnn_90_boat_20_n04273569_8951.png
dino_v8,1,494,NaN,knife,knife,180,0494_rot_dnn_180_knife_20_n03041632_53874.png
dino_v8,1,495,NaN,knife,clock,0,0495_rot_dnn_0_clock_20_n04548280_6126.png
dino_v8,1,496,NaN,knife,cat,180,0496_rot_dnn_180_cat_20_n02123597_6186.png
dino_v8,1,497,NaN,knife,cat,270,0497_rot_dnn_270_cat_20_n02124075_14662.png
dino_v8,1,498,NaN,bicycle,car,90,0498_rot_dnn_90_car_20_n04285008_8677.png
dino_v8,1,499,NaN,knife,bird,90,0499_rot_dnn_90_bird_20_n01820546_2568.png
dino_v8,1,500,NaN,chair,clock,90,0500_rot_dnn_90_clock_20_n04548280_7354.png
dino_v8,1,501,NaN,knife,bicycle,270,0501_rot_dnn_270_bicycle_20_n03792782_586.png
dino_v8,1,502,NaN,chair,bear,0,0502_rot_dnn_0_bear_20_n02134084_572.png
dino_v8,1,503,NaN,clock,bicycle,270,0503_rot_dnn_270_bicycle_20_n03792782_3388.png
dino_v8,1,504,NaN,knife,bicycle,270,0504_rot_dnn_270_bicycle_20_n03792782_28970.png
dino_v8,1,505,NaN,bicycle,bottle,270,0505_rot_dnn_270_bottle_20_n04560804_11386.png
dino_v8,1,506,NaN,knife,chair,180,0506_rot_dnn_180_chair_20_n03376595_6799.png
dino_v8,1,507,NaN,chair,dog,270,0507_rot_dnn_270_dog_20_n02094258_6398.png
dino_v8,1,508,NaN,knife,bird,0,0508_rot_dnn_0_bird_20_n01592084_2639.png
dino_v8,1,509,NaN,chair,bird,180,0509_rot_dnn_180_bird_20_n02017213_4781.png
dino_v8,1,510,NaN,knife,airplane,270,0510_rot_dnn_270_airplane_20_n02690373_3818.png
dino_v8,1,511,NaN,knife,bicycle,90,0511_rot_dnn_90_bicycle_20_n03792782_26383.png
dino_v8,1,512,NaN,knife,oven,90,0512_rot_dnn_90_oven_20_n04111531_5216.png
dino_v8,1,513,NaN,elephant,airplane,180,0513_rot_dnn_180_airplane_20_n02690373_20331.png
dino_v8,1,514,NaN,bicycle,truck,180,0514_rot_dnn_180_truck_20_n04467665_23691.png
dino_v8,1,515,NaN,knife,bird,0,0515_rot_dnn_0_bird_20_n02009229_492.png
dino_v8,1,516,NaN,knife,bird,90,0516_rot_dnn_90_bird_20_n02002556_5890.png
dino_v8,1,517,NaN,knife,bird,270,0517_rot_dnn_270_bird_20_n01855032_5358.png
dino_v8,1,518,NaN,car,dog,180,0518_rot_dnn_180_dog_20_n02112350_10026.png
dino_v8,1,519,NaN,bicycle,knife,90,0519_rot_dnn_90_knife_20_n03041632_11773.png
dino_v8,1,520,NaN,chair,elephant,0,0520_rot_dnn_0_elephant_20_n02504013_20486.png
dino_v8,1,521,NaN,knife,oven,0,0521_rot_dnn_0_oven_20_n04111531_27.png
dino_v8,1,522,NaN,keyboard,bird,180,0522_rot_dnn_180_bird_20_n01855672_15421.png
dino_v8,1,523,NaN,knife,bear,270,0523_rot_dnn_270_bear_20_n02132136_239.png
dino_v8,1,524,NaN,chair,keyboard,90,0524_rot_dnn_90_keyboard_20_n03085013_25924.png
dino_v8,1,525,NaN,knife,bicycle,180,0525_rot_dnn_180_bicycle_20_n03792782_6030.png
dino_v8,1,526,NaN,chair,bottle,270,0526_rot_dnn_270_bottle_20_n03983396_5497.png
dino_v8,1,527,NaN,knife,chair,180,0527_rot_dnn_180_chair_20_n04429376_6390.png
dino_v8,1,528,NaN,chair,dog,90,0528_rot_dnn_90_dog_20_n02100877_11159.png
dino_v8,1,529,NaN,elephant,bottle,180,0529_rot_dnn_180_bottle_20_n04579145_579.png
dino_v8,1,530,NaN,knife,cat,90,0530_rot_dnn_90_cat_20_n02123159_5678.png
dino_v8,1,531,NaN,bicycle,elephant,180,0531_rot_dnn_180_elephant_20_n02504013_13283.png
dino_v8,1,532,NaN,car,dog,90,0532_rot_dnn_90_dog_20_n02095570_7633.png
dino_v8,1,533,NaN,knife,clock,180,0533_rot_dnn_180_clock_20_n02708093_8311.png
dino_v8,1,534,NaN,bear,chair,270,0534_rot_dnn_270_chair_20_n03376595_426.png
dino_v8,1,535,NaN,oven,dog,180,0535_rot_dnn_180_dog_20_n02100877_3112.png
dino_v8,1,536,NaN,oven,car,270,0536_rot_dnn_270_car_20_n02814533_458.png
dino_v8,1,537,NaN,knife,bird,0,0537_rot_dnn_0_bird_20_n02006656_5079.png
dino_v8,1,538,NaN,chair,boat,90,0538_rot_dnn_90_boat_20_n04273569_12725.png
dino_v8,1,539,NaN,knife,cat,270,0539_rot_dnn_270_cat_20_n02123045_6677.png
dino_v8,1,540,NaN,knife,bicycle,270,0540_rot_dnn_270_bicycle_20_n02835271_4440.png
dino_v8,1,541,NaN,knife,keyboard,270,0541_rot_dnn_270_keyboard_20_n03085013_21444.png
dino_v8,1,542,NaN,bicycle,clock,180,0542_rot_dnn_180_clock_20_n02708093_8255.png
dino_v8,1,543,NaN,bicycle,bicycle,0,0543_rot_dnn_0_bicycle_20_n02835271_30318.png
dino_v8,1,544,NaN,bear,cat,180,0544_rot_dnn_180_cat_20_n02123394_2059.png
dino_v8,1,545,NaN,chair,elephant,180,0545_rot_dnn_180_elephant_20_n02504013_6618.png
dino_v8,1,546,NaN,knife,cat,270,0546_rot_dnn_270_cat_20_n02124075_8889.png
dino_v8,1,547,NaN,chair,dog,90,0547_rot_dnn_90_dog_20_n02100877_7302.png
dino_v8,1,548,NaN,cat,car,180,0548_rot_dnn_180_car_20_n02814533_85971.png
dino_v8,1,549,NaN,bear,chair,0,0549_rot_dnn_0_chair_20_n03376595_5909.png
dino_v8,1,550,NaN,bicycle,keyboard,270,0550_rot_dnn_270_keyboard_20_n03085013_13083.png
dino_v8,1,551,NaN,bicycle,oven,90,0551_rot_dnn_90_oven_20_n04111531_9611.png
dino_v8,1,552,NaN,chair,boat,0,0552_rot_dnn_0_boat_20_n02951358_13996.png
dino_v8,1,553,NaN,knife,boat,0,0553_rot_dnn_0_boat_20_n03344393_9251.png
dino_v8,1,554,NaN,keyboard,airplane,180,0554_rot_dnn_180_airplane_20_n02690373_9175.png
dino_v8,1,555,NaN,clock,bear,0,0555_rot_dnn_0_bear_20_n02132136_2791.png
dino_v8,1,556,NaN,oven,elephant,180,0556_rot_dnn_180_elephant_20_n02504458_193.png
dino_v8,1,557,NaN,knife,bird,270,0557_rot_dnn_270_bird_20_n01843383_9985.png
dino_v8,1,558,NaN,knife,bird,270,0558_rot_dnn_270_bird_20_n02028035_10744.png
dino_v8,1,559,NaN,keyboard,truck,270,0559_rot_dnn_270_truck_20_n04467665_3720.png
dino_v8,1,560,NaN,clock,car,0,0560_rot_dnn_0_car_20_n02814533_52605.png
dino_v8,1,561,NaN,bicycle,clock,90,0561_rot_dnn_90_clock_20_n04548280_5631.png
dino_v8,1,562,NaN,knife,oven,0,0562_rot_dnn_0_oven_20_n04111531_1922.png
dino_v8,1,563,NaN,knife,boat,180,0563_rot_dnn_180_boat_20_n03662601_1197.png
dino_v8,1,564,NaN,knife,clock,270,0564_rot_dnn_270_clock_20_n02708093_1862.png
dino_v8,1,565,NaN,oven,truck,180,0565_rot_dnn_180_truck_20_n03796401_4582.png
dino_v8,1,566,NaN,bear,elephant,90,0566_rot_dnn_90_elephant_20_n02504013_565.png
dino_v8,1,567,NaN,boat,truck,180,0567_rot_dnn_180_truck_20_n04467665_49826.png
dino_v8,1,568,NaN,bicycle,bear,270,0568_rot_dnn_270_bear_20_n02134418_5067.png
dino_v8,1,569,NaN,airplane,chair,90,0569_rot_dnn_90_chair_20_n04429376_29223.png
dino_v8,1,570,NaN,airplane,airplane,270,0570_rot_dnn_270_airplane_20_n02690373_5909.png
dino_v8,1,571,NaN,keyboard,dog,270,0571_rot_dnn_270_dog_20_n02097658_722.png
dino_v8,1,572,NaN,bear,oven,0,0572_rot_dnn_0_oven_20_n04111531_10339.png
dino_v8,1,573,NaN,bicycle,truck,90,0573_rot_dnn_90_truck_20_n03417042_28078.png
dino_v8,1,574,NaN,airplane,chair,180,0574_rot_dnn_180_chair_20_n04099969_22118.png
dino_v8,1,575,NaN,bear,clock,270,0575_rot_dnn_270_clock_20_n04548280_7978.png
dino_v8,1,576,NaN,elephant,bear,180,0576_rot_dnn_180_bear_20_n02133161_1962.png
dino_v8,1,577,NaN,oven,clock,180,0577_rot_dnn_180_clock_20_n04548280_13750.png
dino_v8,1,578,NaN,bear,keyboard,0,0578_rot_dnn_0_keyboard_20_n03085013_15249.png
dino_v8,1,579,NaN,bear,car,90,0579_rot_dnn_90_car_20_n02814533_479.png
dino_v8,1,580,NaN,oven,keyboard,270,0580_rot_dnn_270_keyboard_20_n03085013_20716.png
dino_v8,1,581,NaN,knife,bird,180,0581_rot_dnn_180_bird_20_n01530575_7990.png
dino_v8,1,582,NaN,chair,chair,0,0582_rot_dnn_0_chair_20_n04429376_17343.png
dino_v8,1,583,NaN,keyboard,chair,90,0583_rot_dnn_90_chair_20_n02791124_8775.png
dino_v8,1,584,NaN,bicycle,cat,90,0584_rot_dnn_90_cat_20_n02125311_2959.png
dino_v8,1,585,NaN,boat,oven,180,0585_rot_dnn_180_oven_20_n04111531_13906.png
dino_v8,1,586,NaN,elephant,airplane,90,0586_rot_dnn_90_airplane_20_n02690373_7293.png
dino_v8,1,587,NaN,knife,chair,180,0587_rot_dnn_180_chair_20_n04099969_10825.png
dino_v8,1,588,NaN,knife,airplane,180,0588_rot_dnn_180_airplane_20_n02690373_17044.png
dino_v8,1,589,NaN,knife,bird,0,0589_rot_dnn_0_bird_20_n01797886_6169.png
dino_v8,1,590,NaN,clock,oven,0,0590_rot_dnn_0_oven_20_n04111531_13255.png
dino_v8,1,591,NaN,chair,knife,270,0591_rot_dnn_270_knife_20_n03041632_17820.png
dino_v8,1,592,NaN,bicycle,bicycle,270,0592_rot_dnn_270_bicycle_20_n02835271_21640.png
dino_v8,1,593,NaN,clock,bear,0,0593_rot_dnn_0_bear_20_n02134418_517.png
dino_v8,1,594,NaN,bear,airplane,180,0594_rot_dnn_180_airplane_20_n02690373_4588.png
dino_v8,1,595,NaN,keyboard,bottle,270,0595_rot_dnn_270_bottle_20_n02823428_12190.png
dino_v8,1,596,NaN,cat,bottle,0,0596_rot_dnn_0_bottle_20_n04591713_1717.png
dino_v8,1,597,NaN,chair,knife,0,0597_rot_dnn_0_knife_20_n03041632_9488.png
dino_v8,1,598,NaN,clock,truck,90,0598_rot_dnn_90_truck_20_n03417042_11166.png
dino_v8,1,599,NaN,elephant,elephant,90,0599_rot_dnn_90_elephant_20_n02504458_585.png
dino_v8,1,600,NaN,clock,keyboard,0,0600_rot_dnn_0_keyboard_20_n04505470_5046.png
dino_v8,1,601,NaN,chair,chair,180,0601_rot_dnn_180_chair_20_n03376595_4937.png
dino_v8,1,602,NaN,keyboard,boat,180,0602_rot_dnn_180_boat_20_n03662601_1740.png
dino_v8,1,603,NaN,boat,knife,0,0603_rot_dnn_0_knife_20_n03041632_4037.png
dino_v8,1,604,NaN,keyboard,boat,0,0604_rot_dnn_0_boat_20_n04273569_1538.png
dino_v8,1,605,NaN,knife,bird,0,0605_rot_dnn_0_bird_20_n02017213_15918.png
dino_v8,1,606,NaN,bear,keyboard,0,0606_rot_dnn_0_keyboard_20_n03085013_10463.png
dino_v8,1,607,NaN,knife,bear,270,0607_rot_dnn_270_bear_20_n02133161_7939.png
dino_v8,1,608,NaN,keyboard,car,270,0608_rot_dnn_270_car_20_n04285008_11704.png
dino_v8,1,609,NaN,bear,truck,90,0609_rot_dnn_90_truck_20_n03796401_16046.png
dino_v8,1,610,NaN,boat,chair,270,0610_rot_dnn_270_chair_20_n02791124_3710.png
dino_v8,1,611,NaN,bicycle,keyboard,180,0611_rot_dnn_180_keyboard_20_n04505470_3566.png
dino_v8,1,612,NaN,chair,bird,90,0612_rot_dnn_90_bird_20_n02037110_8716.png
dino_v8,1,613,NaN,clock,car,0,0613_rot_dnn_0_car_20_n03100240_19550.png
dino_v8,1,614,NaN,elephant,airplane,270,0614_rot_dnn_270_airplane_20_n02690373_10769.png
dino_v8,1,615,NaN,elephant,bicycle,0,0615_rot_dnn_0_bicycle_20_n03792782_3456.png
dino_v8,1,616,NaN,chair,chair,0,0616_rot_dnn_0_chair_20_n03376595_2368.png
dino_v8,1,617,NaN,knife,dog,0,0617_rot_dnn_0_dog_20_n02091467_2974.png
dino_v8,1,618,NaN,cat,knife,180,0618_rot_dnn_180_knife_20_n03041632_43634.png
dino_v8,1,619,NaN,chair,keyboard,180,0619_rot_dnn_180_keyboard_20_n04505470_4477.png
dino_v8,1,620,NaN,bottle,boat,90,0620_rot_dnn_90_boat_20_n03344393_4773.png
dino_v8,1,621,NaN,bear,airplane,180,0621_rot_dnn_180_airplane_20_n02690373_139.png
dino_v8,1,622,NaN,knife,knife,270,0622_rot_dnn_270_knife_20_n03041632_737.png
dino_v8,1,623,NaN,chair,chair,270,0623_rot_dnn_270_chair_20_n02791124_2698.png
dino_v8,1,624,NaN,airplane,truck,270,0624_rot_dnn_270_truck_20_n03417042_5301.png
dino_v8,1,625,NaN,knife,bird,0,0625_rot_dnn_0_bird_20_n02006656_5757.png
dino_v8,1,626,NaN,chair,bear,270,0626_rot_dnn_270_bear_20_n02132136_15174.png
dino_v8,1,627,NaN,airplane,bottle,270,0627_rot_dnn_270_bottle_20_n04560804_6329.png
dino_v8,1,628,NaN,boat,truck,0,0628_rot_dnn_0_truck_20_n03417042_22196.png
dino_v8,1,629,NaN,knife,cat,0,0629_rot_dnn_0_cat_20_n02125311_18366.png
dino_v8,1,630,NaN,chair,chair,0,0630_rot_dnn_0_chair_20_n02791124_12707.png
dino_v8,1,631,NaN,car,oven,180,0631_rot_dnn_180_oven_20_n04111531_1938.png
dino_v8,1,632,NaN,airplane,airplane,270,0632_rot_dnn_270_airplane_20_n02690373_9346.png
dino_v8,1,633,NaN,bear,cat,0,0633_rot_dnn_0_cat_20_n02123045_10433.png
dino_v8,1,634,NaN,clock,airplane,180,0634_rot_dnn_180_airplane_20_n02690373_5055.png
dino_v8,1,635,NaN,elephant,clock,270,0635_rot_dnn_270_clock_20_n04548280_4198.png
dino_v8,1,636,NaN,knife,bicycle,90,0636_rot_dnn_90_bicycle_20_n03792782_12010.png
dino_v8,1,637,NaN,elephant,cat,180,0637_rot_dnn_180_cat_20_n02125311_24586.png
dino_v8,1,638,NaN,cat,chair,0,0638_rot_dnn_0_chair_20_n02791124_3220.png
dino_v8,1,639,NaN,bicycle,car,90,0639_rot_dnn_90_car_20_n04285008_12737.png
dino_v8,1,640,NaN,keyboard,chair,180,0640_rot_dnn_180_chair_20_n04429376_4296.png
dino_v8,1,641,NaN,knife,airplane,90,0641_rot_dnn_90_airplane_20_n02690373_5534.png
dino_v8,1,642,NaN,elephant,dog,180,0642_rot_dnn_180_dog_20_n02113978_2286.png
dino_v8,1,643,NaN,elephant,dog,0,0643_rot_dnn_0_dog_20_n02087394_3354.png
dino_v8,1,644,NaN,elephant,chair,180,0644_rot_dnn_180_chair_20_n03376595_2103.png
dino_v8,1,645,NaN,clock,elephant,0,0645_rot_dnn_0_elephant_20_n02504458_5181.png
dino_v8,1,646,NaN,boat,chair,270,0646_rot_dnn_270_chair_20_n02791124_10287.png
dino_v8,1,647,NaN,chair,oven,90,0647_rot_dnn_90_oven_20_n04111531_22291.png
dino_v8,1,648,NaN,bicycle,bottle,90,0648_rot_dnn_90_bottle_20_n03937543_4399.png
dino_v8,1,649,NaN,clock,truck,90,0649_rot_dnn_90_truck_20_n03796401_13226.png
dino_v8,1,650,NaN,chair,airplane,270,0650_rot_dnn_270_airplane_20_n02690373_5430.png
dino_v8,1,651,NaN,knife,cat,90,0651_rot_dnn_90_cat_20_n02124075_20.png
dino_v8,1,652,NaN,knife,keyboard,90,0652_rot_dnn_90_keyboard_20_n04505470_4943.png
dino_v8,1,653,NaN,chair,car,180,0653_rot_dnn_180_car_20_n03100240_4288.png
dino_v8,1,654,NaN,keyboard,dog,0,0654_rot_dnn_0_dog_20_n02109525_7478.png
dino_v8,1,655,NaN,chair,bicycle,0,0655_rot_dnn_0_bicycle_20_n03792782_4895.png
dino_v8,1,656,NaN,chair,oven,0,0656_rot_dnn_0_oven_20_n04111531_8077.png
dino_v8,1,657,NaN,knife,airplane,90,0657_rot_dnn_90_airplane_20_n02690373_4845.png
dino_v8,1,658,NaN,bicycle,cat,90,0658_rot_dnn_90_cat_20_n02125311_59332.png
dino_v8,1,659,NaN,bicycle,bicycle,180,0659_rot_dnn_180_bicycle_20_n02835271_24.png
dino_v8,1,660,NaN,bear,truck,180,0660_rot_dnn_180_truck_20_n04467665_22637.png
dino_v8,1,661,NaN,chair,dog,180,0661_rot_dnn_180_dog_20_n02101006_6694.png
dino_v8,1,662,NaN,clock,car,0,0662_rot_dnn_0_car_20_n02814533_37256.png
dino_v8,1,663,NaN,knife,bear,0,0663_rot_dnn_0_bear_20_n02134418_132.png
dino_v8,1,664,NaN,knife,knife,180,0664_rot_dnn_180_knife_20_n03041632_41310.png
dino_v8,1,665,NaN,knife,bird,0,0665_rot_dnn_0_bird_20_n01530575_3198.png
dino_v8,1,666,NaN,elephant,bicycle,180,0666_rot_dnn_180_bicycle_20_n02835271_3643.png
dino_v8,1,667,NaN,knife,chair,180,0667_rot_dnn_180_chair_20_n02791124_3186.png
dino_v8,1,668,NaN,elephant,chair,270,0668_rot_dnn_270_chair_20_n04099969_5396.png
dino_v8,1,669,NaN,bear,dog,0,0669_rot_dnn_0_dog_20_n02110806_749.png
dino_v8,1,670,NaN,bicycle,car,180,0670_rot_dnn_180_car_20_n04285008_7155.png
dino_v8,1,671,NaN,knife,airplane,270,0671_rot_dnn_270_airplane_20_n02690373_6621.png
dino_v8,1,672,NaN,knife,cat,270,0672_rot_dnn_270_cat_20_n02124075_11727.png
dino_v8,1,673,NaN,bicycle,elephant,180,0673_rot_dnn_180_elephant_20_n02504013_1078.png
dino_v8,1,674,NaN,chair,knife,180,0674_rot_dnn_180_knife_20_n03041632_21017.png
dino_v8,1,675,NaN,chair,knife,180,0675_rot_dnn_180_knife_20_n03041632_22330.png
dino_v8,1,676,NaN,knife,clock,270,0676_rot_dnn_270_clock_20_n03196217_368.png
dino_v8,1,677,NaN,keyboard,knife,0,0677_rot_dnn_0_knife_20_n03041632_99912.png
dino_v8,1,678,NaN,cat,boat,180,0678_rot_dnn_180_boat_20_n03344393_7705.png
dino_v8,1,679,NaN,knife,bear,180,0679_rot_dnn_180_bear_20_n02134084_41588.png
dino_v8,1,680,NaN,bear,knife,0,0680_rot_dnn_0_knife_20_n03041632_45775.png
dino_v8,1,681,NaN,keyboard,bicycle,180,0681_rot_dnn_180_bicycle_20_n02835271_24630.png
dino_v8,1,682,NaN,knife,boat,270,0682_rot_dnn_270_boat_20_n03662601_22973.png
dino_v8,1,683,NaN,keyboard,car,270,0683_rot_dnn_270_car_20_n02814533_8042.png
dino_v8,1,684,NaN,clock,boat,0,0684_rot_dnn_0_boat_20_n03662601_17483.png
dino_v8,1,685,NaN,clock,bicycle,180,0685_rot_dnn_180_bicycle_20_n03792782_13680.png
dino_v8,1,686,NaN,knife,chair,180,0686_rot_dnn_180_chair_20_n03376595_15468.png
dino_v8,1,687,NaN,knife,knife,270,0687_rot_dnn_270_knife_20_n03041632_26236.png
dino_v8,1,688,NaN,boat,cat,180,0688_rot_dnn_180_cat_20_n02125311_41650.png
dino_v8,1,689,NaN,keyboard,car,90,0689_rot_dnn_90_car_20_n02814533_5916.png
dino_v8,1,690,NaN,chair,knife,180,0690_rot_dnn_180_knife_20_n03041632_7116.png
dino_v8,1,691,NaN,keyboard,bottle,90,0691_rot_dnn_90_bottle_20_n04560804_13583.png
dino_v8,1,692,NaN,keyboard,bicycle,180,0692_rot_dnn_180_bicycle_20_n02835271_10933.png
dino_v8,1,693,NaN,keyboard,truck,180,0693_rot_dnn_180_truck_20_n04467665_9589.png
dino_v8,1,694,NaN,keyboard,car,180,0694_rot_dnn_180_car_20_n03100240_1750.png
dino_v8,1,695,NaN,knife,bear,270,0695_rot_dnn_270_bear_20_n02134418_1094.png
dino_v8,1,696,NaN,knife,clock,0,0696_rot_dnn_0_clock_20_n04548280_7792.png
dino_v8,1,697,NaN,car,airplane,0,0697_rot_dnn_0_airplane_20_n02690373_7142.png
dino_v8,1,698,NaN,knife,keyboard,0,0698_rot_dnn_0_keyboard_20_n04505470_7312.png
dino_v8,1,699,NaN,knife,bear,90,0699_rot_dnn_90_bear_20_n02132136_18953.png
dino_v8,1,700,NaN,knife,bird,270,0700_rot_dnn_270_bird_20_n02056570_9303.png
dino_v8,1,701,NaN,bicycle,chair,0,0701_rot_dnn_0_chair_20_n02791124_4956.png
dino_v8,1,702,NaN,knife,dog,0,0702_rot_dnn_0_dog_20_n02087394_9061.png
dino_v8,1,703,NaN,knife,bird,270,0703_rot_dnn_270_bird_20_n02025239_13707.png
dino_v8,1,704,NaN,bicycle,knife,270,0704_rot_dnn_270_knife_20_n03041632_14916.png
dino_v8,1,705,NaN,boat,chair,180,0705_rot_dnn_180_chair_20_n02791124_1287.png
dino_v8,1,706,NaN,knife,bear,180,0706_rot_dnn_180_bear_20_n02134418_1825.png
dino_v8,1,707,NaN,chair,elephant,0,0707_rot_dnn_0_elephant_20_n02504013_6999.png
dino_v8,1,708,NaN,knife,clock,270,0708_rot_dnn_270_clock_20_n04548280_7050.png
dino_v8,1,709,NaN,oven,cat,180,0709_rot_dnn_180_cat_20_n02123394_8100.png
dino_v8,1,710,NaN,chair,oven,180,0710_rot_dnn_180_oven_20_n04111531_11026.png
dino_v8,1,711,NaN,knife,car,0,0711_rot_dnn_0_car_20_n02814533_79974.png
dino_v8,1,712,NaN,clock,chair,0,0712_rot_dnn_0_chair_20_n04429376_10994.png
dino_v8,1,713,NaN,knife,boat,90,0713_rot_dnn_90_boat_20_n02951358_582.png
dino_v8,1,714,NaN,dog,keyboard,270,0714_rot_dnn_270_keyboard_20_n03085013_24385.png
dino_v8,1,715,NaN,knife,bear,0,0715_rot_dnn_0_bear_20_n02133161_4218.png
dino_v8,1,716,NaN,car,keyboard,270,0716_rot_dnn_270_keyboard_20_n03085013_1070.png
dino_v8,1,717,NaN,knife,bicycle,180,0717_rot_dnn_180_bicycle_20_n02835271_2131.png
dino_v8,1,718,NaN,clock,oven,90,0718_rot_dnn_90_oven_20_n04111531_8988.png
dino_v8,1,719,NaN,chair,elephant,90,0719_rot_dnn_90_elephant_20_n02504458_3608.png
dino_v8,1,720,NaN,keyboard,boat,270,0720_rot_dnn_270_boat_20_n03344393_2961.png
dino_v8,1,721,NaN,chair,oven,90,0721_rot_dnn_90_oven_20_n04111531_12980.png
dino_v8,1,722,NaN,clock,airplane,180,0722_rot_dnn_180_airplane_20_n02690373_7046.png
dino_v8,1,723,NaN,knife,bottle,0,0723_rot_dnn_0_bottle_20_n03937543_1929.png
dino_v8,1,724,NaN,bear,dog,90,0724_rot_dnn_90_dog_20_n02087394_7707.png
dino_v8,1,725,NaN,knife,chair,180,0725_rot_dnn_180_chair_20_n03376595_9219.png
dino_v8,1,726,NaN,clock,airplane,180,0726_rot_dnn_180_airplane_20_n02690373_5838.png
dino_v8,1,727,NaN,knife,chair,0,0727_rot_dnn_0_chair_20_n04099969_16669.png
dino_v8,1,728,NaN,bear,bird,180,0728_rot_dnn_180_bird_20_n01532829_37796.png
dino_v8,1,729,NaN,clock,airplane,180,0729_rot_dnn_180_airplane_20_n02690373_6602.png
dino_v8,1,730,NaN,chair,bear,180,0730_rot_dnn_180_bear_20_n02134418_200.png
dino_v8,1,731,NaN,knife,car,0,0731_rot_dnn_0_car_20_n03100240_16084.png
dino_v8,1,732,NaN,knife,bear,270,0732_rot_dnn_270_bear_20_n02134084_18952.png
dino_v8,1,733,NaN,knife,boat,90,0733_rot_dnn_90_boat_20_n04273569_1050.png
dino_v8,1,734,NaN,keyboard,dog,0,0734_rot_dnn_0_dog_20_n02092339_659.png
dino_v8,1,735,NaN,clock,elephant,0,0735_rot_dnn_0_elephant_20_n02504458_493.png
dino_v8,1,736,NaN,airplane,truck,90,0736_rot_dnn_90_truck_20_n03417042_9238.png
dino_v8,1,737,NaN,knife,truck,90,0737_rot_dnn_90_truck_20_n04467665_8303.png
dino_v8,1,738,NaN,knife,cat,270,0738_rot_dnn_270_cat_20_n02123394_6969.png
dino_v8,1,739,NaN,knife,bottle,90,0739_rot_dnn_90_bottle_20_n03983396_618.png
dino_v8,1,740,NaN,chair,elephant,0,0740_rot_dnn_0_elephant_20_n02504458_8621.png
dino_v8,1,741,NaN,keyboard,bicycle,90,0741_rot_dnn_90_bicycle_20_n02835271_3308.png
dino_v8,1,742,NaN,knife,bird,90,0742_rot_dnn_90_bird_20_n02025239_17065.png
dino_v8,1,743,NaN,airplane,clock,0,0743_rot_dnn_0_clock_20_n04548280_4582.png
dino_v8,1,744,NaN,airplane,keyboard,180,0744_rot_dnn_180_keyboard_20_n04505470_933.png
dino_v8,1,745,NaN,knife,cat,270,0745_rot_dnn_270_cat_20_n02123597_2549.png
dino_v8,1,746,NaN,oven,boat,90,0746_rot_dnn_90_boat_20_n04612504_30766.png
dino_v8,1,747,NaN,knife,airplane,90,0747_rot_dnn_90_airplane_20_n02690373_4695.png
dino_v8,1,748,NaN,bear,oven,0,0748_rot_dnn_0_oven_20_n04111531_18648.png
dino_v8,1,749,NaN,elephant,bicycle,180,0749_rot_dnn_180_bicycle_20_n02835271_14862.png
dino_v8,1,750,NaN,elephant,knife,180,0750_rot_dnn_180_knife_20_n03041632_101810.png
dino_v8,1,751,NaN,knife,keyboard,0,0751_rot_dnn_0_keyboard_20_n03085013_3795.png
dino_v8,1,752,NaN,airplane,clock,90,0752_rot_dnn_90_clock_20_n03196217_1458.png
dino_v8,1,753,NaN,bear,bear,180,0753_rot_dnn_180_bear_20_n02134418_4458.png
dino_v8,1,754,NaN,elephant,cat,180,0754_rot_dnn_180_cat_20_n02123045_11545.png
dino_v8,1,755,NaN,knife,bird,270,0755_rot_dnn_270_bird_20_n01592084_8100.png
dino_v8,1,756,NaN,oven,car,270,0756_rot_dnn_270_car_20_n04285008_12504.png
dino_v8,1,757,NaN,elephant,bear,180,0757_rot_dnn_180_bear_20_n02133161_5235.png
dino_v8,1,758,NaN,knife,cat,270,0758_rot_dnn_270_cat_20_n02125311_33586.png
dino_v8,1,759,NaN,elephant,bird,180,0759_rot_dnn_180_bird_20_n01820546_1089.png
dino_v8,1,760,NaN,knife,knife,270,0760_rot_dnn_270_knife_20_n03041632_18995.png
dino_v8,1,761,NaN,bicycle,bottle,90,0761_rot_dnn_90_bottle_20_n02823428_4299.png
dino_v8,1,762,NaN,elephant,cat,90,0762_rot_dnn_90_cat_20_n02123045_7294.png
dino_v8,1,763,NaN,bicycle,truck,180,0763_rot_dnn_180_truck_20_n03796401_6315.png
dino_v8,1,764,NaN,airplane,knife,90,0764_rot_dnn_90_knife_20_n03041632_30248.png
dino_v8,1,765,NaN,boat,clock,270,0765_rot_dnn_270_clock_20_n02708093_1981.png
dino_v8,1,766,NaN,airplane,bird,180,0766_rot_dnn_180_bird_20_n02002724_6462.png
dino_v8,1,767,NaN,chair,chair,90,0767_rot_dnn_90_chair_20_n04099969_48945.png
dino_v8,1,768,NaN,car,clock,270,0768_rot_dnn_270_clock_20_n03196217_2291.png
dino_v8,1,769,NaN,airplane,bottle,90,0769_rot_dnn_90_bottle_20_n03937543_4830.png
dino_v8,1,770,NaN,knife,bear,180,0770_rot_dnn_180_bear_20_n02134418_5260.png
dino_v8,1,771,NaN,knife,keyboard,90,0771_rot_dnn_90_keyboard_20_n04505470_4047.png
dino_v8,1,772,NaN,knife,bird,270,0772_rot_dnn_270_bird_20_n01531178_4324.png
dino_v8,1,773,NaN,knife,knife,90,0773_rot_dnn_90_knife_20_n03041632_4806.png
dino_v8,1,774,NaN,bear,bottle,270,0774_rot_dnn_270_bottle_20_n04557648_4727.png
dino_v8,1,775,NaN,knife,dog,270,0775_rot_dnn_270_dog_20_n02092002_5845.png
dino_v8,1,776,NaN,knife,knife,180,0776_rot_dnn_180_knife_20_n03041632_9580.png
dino_v8,1,777,NaN,chair,oven,90,0777_rot_dnn_90_oven_20_n04111531_7728.png
dino_v8,1,778,NaN,chair,bear,0,0778_rot_dnn_0_bear_20_n02134084_3934.png
dino_v8,1,779,NaN,bicycle,bottle,270,0779_rot_dnn_270_bottle_20_n04557648_16525.png
dino_v8,1,780,NaN,chair,bottle,0,0780_rot_dnn_0_bottle_20_n03983396_4313.png
dino_v8,1,781,NaN,chair,dog,0,0781_rot_dnn_0_dog_20_n02097209_1042.png
dino_v8,1,782,NaN,chair,airplane,270,0782_rot_dnn_270_airplane_20_n02690373_8876.png
dino_v8,1,783,NaN,knife,cat,270,0783_rot_dnn_270_cat_20_n02123597_2219.png
dino_v8,1,784,NaN,boat,boat,270,0784_rot_dnn_270_boat_20_n02951358_9837.png
dino_v8,1,785,NaN,chair,bird,180,0785_rot_dnn_180_bird_20_n02018207_5735.png
dino_v8,1,786,NaN,knife,boat,0,0786_rot_dnn_0_boat_20_n03662601_7324.png
dino_v8,1,787,NaN,airplane,bottle,90,0787_rot_dnn_90_bottle_20_n04579145_6509.png
dino_v8,1,788,NaN,knife,clock,0,0788_rot_dnn_0_clock_20_n02708093_2030.png
dino_v8,1,789,NaN,knife,chair,0,0789_rot_dnn_0_chair_20_n04099969_5854.png
dino_v8,1,790,NaN,boat,clock,0,0790_rot_dnn_0_clock_20_n04548280_7211.png
dino_v8,1,791,NaN,knife,bear,270,0791_rot_dnn_270_bear_20_n02134084_3903.png
dino_v8,1,792,NaN,knife,bear,90,0792_rot_dnn_90_bear_20_n02134084_7817.png
dino_v8,1,793,NaN,knife,dog,90,0793_rot_dnn_90_dog_20_n02099601_10748.png
dino_v8,1,794,NaN,bottle,oven,0,0794_rot_dnn_0_oven_20_n04111531_1230.png
dino_v8,1,795,NaN,cat,car,0,0795_rot_dnn_0_car_20_n02814533_70448.png
dino_v8,1,796,NaN,chair,knife,0,0796_rot_dnn_0_knife_20_n03041632_49570.png
dino_v8,1,797,NaN,cat,car,0,0797_rot_dnn_0_car_20_n04285008_12909.png
dino_v8,1,798,NaN,bicycle,boat,0,0798_rot_dnn_0_boat_20_n03344393_6297.png
dino_v8,1,799,NaN,knife,keyboard,90,0799_rot_dnn_90_keyboard_20_n03085013_22665.png
dino_v8,1,800,NaN,airplane,dog,270,0800_rot_dnn_270_dog_20_n02109047_13710.png
dino_v8,1,801,NaN,boat,car,270,0801_rot_dnn_270_car_20_n02814533_23563.png
dino_v8,1,802,NaN,knife,bicycle,0,0802_rot_dnn_0_bicycle_20_n03792782_892.png
dino_v8,1,803,NaN,knife,bird,180,0803_rot_dnn_180_bird_20_n01616318_1164.png
dino_v8,1,804,NaN,knife,bear,270,0804_rot_dnn_270_bear_20_n02134418_5827.png
dino_v8,1,805,NaN,bicycle,knife,270,0805_rot_dnn_270_knife_20_n03041632_424.png
dino_v8,1,806,NaN,bicycle,elephant,90,0806_rot_dnn_90_elephant_20_n02504013_4379.png
dino_v8,1,807,NaN,knife,keyboard,0,0807_rot_dnn_0_keyboard_20_n03085013_22744.png
dino_v8,1,808,NaN,knife,clock,90,0808_rot_dnn_90_clock_20_n04548280_5937.png
dino_v8,1,809,NaN,bicycle,bottle,90,0809_rot_dnn_90_bottle_20_n03983396_5514.png
dino_v8,1,810,NaN,knife,truck,0,0810_rot_dnn_0_truck_20_n03417042_889.png
dino_v8,1,811,NaN,knife,clock,180,0811_rot_dnn_180_clock_20_n02708093_906.png
dino_v8,1,812,NaN,elephant,bicycle,180,0812_rot_dnn_180_bicycle_20_n03792782_15282.png
dino_v8,1,813,NaN,knife,clock,90,0813_rot_dnn_90_clock_20_n04548280_1254.png
dino_v8,1,814,NaN,elephant,airplane,0,0814_rot_dnn_0_airplane_20_n02690373_764.png
dino_v8,1,815,NaN,knife,bicycle,270,0815_rot_dnn_270_bicycle_20_n02835271_22206.png
dino_v8,1,816,NaN,chair,bottle,0,0816_rot_dnn_0_bottle_20_n02823428_3570.png
dino_v8,1,817,NaN,oven,bicycle,180,0817_rot_dnn_180_bicycle_20_n03792782_14413.png
dino_v8,1,818,NaN,knife,bear,90,0818_rot_dnn_90_bear_20_n02134418_2661.png
dino_v8,1,819,NaN,clock,cat,270,0819_rot_dnn_270_cat_20_n02123394_4700.png
dino_v8,1,820,NaN,airplane,bottle,0,0820_rot_dnn_0_bottle_20_n04557648_3959.png
dino_v8,1,821,NaN,bottle,bottle,90,0821_rot_dnn_90_bottle_20_n03937543_2469.png
dino_v8,1,822,NaN,bicycle,clock,90,0822_rot_dnn_90_clock_20_n02708093_2676.png
dino_v8,1,823,NaN,knife,cat,0,0823_rot_dnn_0_cat_20_n02123597_19872.png
dino_v8,1,824,NaN,boat,oven,180,0824_rot_dnn_180_oven_20_n04111531_14488.png
dino_v8,1,825,NaN,knife,clock,270,0825_rot_dnn_270_clock_20_n02708093_3841.png
dino_v8,1,826,NaN,car,cat,180,0826_rot_dnn_180_cat_20_n02123045_11787.png
dino_v8,1,827,NaN,oven,elephant,90,0827_rot_dnn_90_elephant_20_n02504458_6470.png
dino_v8,1,828,NaN,knife,bird,270,0828_rot_dnn_270_bird_20_n01558993_55.png
dino_v8,1,829,NaN,clock,elephant,270,0829_rot_dnn_270_elephant_20_n02504458_8296.png
dino_v8,1,830,NaN,bicycle,car,270,0830_rot_dnn_270_car_20_n02814533_41670.png
dino_v8,1,831,NaN,airplane,bottle,0,0831_rot_dnn_0_bottle_20_n03983396_1881.png
dino_v8,1,832,NaN,clock,airplane,180,0832_rot_dnn_180_airplane_20_n02690373_1491.png
dino_v8,1,833,NaN,knife,oven,0,0833_rot_dnn_0_oven_20_n04111531_6204.png
dino_v8,1,834,NaN,bicycle,elephant,270,0834_rot_dnn_270_elephant_20_n02504013_5364.png
dino_v8,1,835,NaN,knife,airplane,0,0835_rot_dnn_0_airplane_20_n02690373_389.png
dino_v8,1,836,NaN,knife,cat,90,0836_rot_dnn_90_cat_20_n02123159_6933.png
dino_v8,1,837,NaN,bear,dog,90,0837_rot_dnn_90_dog_20_n02111277_2994.png
dino_v8,1,838,NaN,knife,dog,0,0838_rot_dnn_0_dog_20_n02112018_7786.png
dino_v8,1,839,NaN,bicycle,bear,90,0839_rot_dnn_90_bear_20_n02134418_10879.png
dino_v8,1,840,NaN,airplane,clock,270,0840_rot_dnn_270_clock_20_n03196217_1984.png
dino_v8,1,841,NaN,boat,clock,270,0841_rot_dnn_270_clock_20_n03196217_5433.png
dino_v8,1,842,NaN,oven,bird,90,0842_rot_dnn_90_bird_20_n02006656_10849.png
dino_v8,1,843,NaN,knife,bicycle,0,0843_rot_dnn_0_bicycle_20_n03792782_15757.png
dino_v8,1,844,NaN,keyboard,bicycle,90,0844_rot_dnn_90_bicycle_20_n02835271_4797.png
dino_v8,1,845,NaN,airplane,clock,0,0845_rot_dnn_0_clock_20_n02708093_1897.png
dino_v8,1,846,NaN,knife,bottle,270,0846_rot_dnn_270_bottle_20_n02823428_1495.png
dino_v8,1,847,NaN,elephant,clock,0,0847_rot_dnn_0_clock_20_n04548280_3038.png
dino_v8,1,848,NaN,knife,bird,90,0848_rot_dnn_90_bird_20_n01614925_2052.png
dino_v8,1,849,NaN,bicycle,boat,0,0849_rot_dnn_0_boat_20_n03662601_16495.png
dino_v8,1,850,NaN,chair,knife,90,0850_rot_dnn_90_knife_20_n03041632_33255.png
dino_v8,1,851,NaN,knife,keyboard,180,0851_rot_dnn_180_keyboard_20_n03085013_24105.png
dino_v8,1,852,NaN,knife,bird,0,0852_rot_dnn_0_bird_20_n02033041_3924.png
dino_v8,1,853,NaN,knife,dog,90,0853_rot_dnn_90_dog_20_n02110806_8971.png
dino_v8,1,854,NaN,knife,keyboard,270,0854_rot_dnn_270_keyboard_20_n04505470_2055.png
dino_v8,1,855,NaN,oven,car,270,0855_rot_dnn_270_car_20_n03100240_5946.png
dino_v8,1,856,NaN,chair,boat,180,0856_rot_dnn_180_boat_20_n03662601_3955.png
dino_v8,1,857,NaN,boat,clock,270,0857_rot_dnn_270_clock_20_n02708093_5577.png
dino_v8,1,858,NaN,knife,bird,180,0858_rot_dnn_180_bird_20_n02027492_6213.png
dino_v8,1,859,NaN,elephant,truck,270,0859_rot_dnn_270_truck_20_n04467665_70509.png
dino_v8,1,860,NaN,knife,cat,90,0860_rot_dnn_90_cat_20_n02123597_2522.png
dino_v8,1,861,NaN,chair,car,0,0861_rot_dnn_0_car_20_n03100240_18679.png
dino_v8,1,862,NaN,bicycle,clock,270,0862_rot_dnn_270_clock_20_n03196217_1829.png
dino_v8,1,863,NaN,bicycle,truck,0,0863_rot_dnn_0_truck_20_n03796401_5058.png
dino_v8,1,864,NaN,knife,car,0,0864_rot_dnn_0_car_20_n02814533_88986.png
dino_v8,1,865,NaN,airplane,bicycle,90,0865_rot_dnn_90_bicycle_20_n03792782_1924.png
dino_v8,1,866,NaN,boat,chair,180,0866_rot_dnn_180_chair_20_n04429376_3898.png
dino_v8,1,867,NaN,knife,truck,90,0867_rot_dnn_90_truck_20_n03417042_21946.png
dino_v8,1,868,NaN,knife,truck,0,0868_rot_dnn_0_truck_20_n04467665_84527.png
dino_v8,1,869,NaN,elephant,bicycle,90,0869_rot_dnn_90_bicycle_20_n03792782_16117.png
dino_v8,1,870,NaN,knife,boat,0,0870_rot_dnn_0_boat_20_n04273569_23800.png
dino_v8,1,871,NaN,keyboard,knife,90,0871_rot_dnn_90_knife_20_n03041632_19620.png
dino_v8,1,872,NaN,knife,bicycle,180,0872_rot_dnn_180_bicycle_20_n03792782_26168.png
dino_v8,1,873,NaN,knife,bear,0,0873_rot_dnn_0_bear_20_n02132136_1386.png
dino_v8,1,874,NaN,bear,keyboard,90,0874_rot_dnn_90_keyboard_20_n03085013_23625.png
dino_v8,1,875,NaN,bicycle,bottle,0,0875_rot_dnn_0_bottle_20_n04557648_757.png
dino_v8,1,876,NaN,keyboard,dog,0,0876_rot_dnn_0_dog_20_n02102318_501.png
dino_v8,1,877,NaN,bicycle,airplane,270,0877_rot_dnn_270_airplane_20_n02690373_6104.png
dino_v8,1,878,NaN,keyboard,dog,0,0878_rot_dnn_0_dog_20_n02089973_9526.png
dino_v8,1,879,NaN,boat,boat,180,0879_rot_dnn_180_boat_20_n04612504_14176.png
dino_v8,1,880,NaN,chair,cat,180,0880_rot_dnn_180_cat_20_n02125311_43726.png
dino_v8,1,881,NaN,bicycle,chair,90,0881_rot_dnn_90_chair_20_n04429376_13191.png
dino_v8,1,882,NaN,clock,oven,180,0882_rot_dnn_180_oven_20_n04111531_3611.png
dino_v8,1,883,NaN,chair,bottle,180,0883_rot_dnn_180_bottle_20_n04560804_15267.png
dino_v8,1,884,NaN,clock,knife,180,0884_rot_dnn_180_knife_20_n03041632_2630.png
dino_v8,1,885,NaN,knife,cat,90,0885_rot_dnn_90_cat_20_n02124075_14998.png
dino_v8,1,886,NaN,chair,oven,90,0886_rot_dnn_90_oven_20_n04111531_1556.png
dino_v8,1,887,NaN,bottle,chair,270,0887_rot_dnn_270_chair_20_n02791124_5561.png
dino_v8,1,888,NaN,cat,car,0,0888_rot_dnn_0_car_20_n03100240_2195.png
dino_v8,1,889,NaN,knife,bear,270,0889_rot_dnn_270_bear_20_n02134084_1802.png
dino_v8,1,890,NaN,chair,clock,180,0890_rot_dnn_180_clock_20_n03196217_571.png
dino_v8,1,891,NaN,clock,knife,0,0891_rot_dnn_0_knife_20_n03041632_24113.png
dino_v8,1,892,NaN,knife,airplane,0,0892_rot_dnn_0_airplane_20_n02690373_9829.png
dino_v8,1,893,NaN,keyboard,truck,90,0893_rot_dnn_90_truck_20_n03796401_15105.png
dino_v8,1,894,NaN,chair,bird,90,0894_rot_dnn_90_bird_20_n02018795_414.png
dino_v8,1,895,NaN,clock,elephant,270,0895_rot_dnn_270_elephant_20_n02504013_13512.png
dino_v8,1,896,NaN,car,keyboard,180,0896_rot_dnn_180_keyboard_20_n03085013_6405.png
dino_v8,1,897,NaN,chair,elephant,90,0897_rot_dnn_90_elephant_20_n02504013_344.png
dino_v8,1,898,NaN,airplane,boat,180,0898_rot_dnn_180_boat_20_n02951358_3511.png
dino_v8,1,899,NaN,bottle,keyboard,180,0899_rot_dnn_180_keyboard_20_n03085013_3691.png
dino_v8,1,900,NaN,boat,elephant,180,0900_rot_dnn_180_elephant_20_n02504458_5816.png
dino_v8,1,901,NaN,car,keyboard,180,0901_rot_dnn_180_keyboard_20_n04505470_10746.png
dino_v8,1,902,NaN,knife,truck,0,0902_rot_dnn_0_truck_20_n03417042_21047.png
dino_v8,1,903,NaN,knife,boat,0,0903_rot_dnn_0_boat_20_n03662601_8410.png
dino_v8,1,904,NaN,knife,airplane,270,0904_rot_dnn_270_airplane_20_n02690373_1235.png
dino_v8,1,905,NaN,bicycle,cat,180,0905_rot_dnn_180_cat_20_n02123159_630.png
dino_v8,1,906,NaN,knife,knife,90,0906_rot_dnn_90_knife_20_n03041632_51339.png
dino_v8,1,907,NaN,knife,car,90,0907_rot_dnn_90_car_20_n04285008_8641.png
dino_v8,1,908,NaN,oven,dog,90,0908_rot_dnn_90_dog_20_n02093428_17633.png
dino_v8,1,909,NaN,chair,bear,90,0909_rot_dnn_90_bear_20_n02133161_15177.png
dino_v8,1,910,NaN,chair,boat,270,0910_rot_dnn_270_boat_20_n02951358_1362.png
dino_v8,1,911,NaN,chair,airplane,270,0911_rot_dnn_270_airplane_20_n02690373_6459.png
dino_v8,1,912,NaN,cat,bottle,0,0912_rot_dnn_0_bottle_20_n03937543_1197.png
dino_v8,1,913,NaN,knife,bear,0,0913_rot_dnn_0_bear_20_n02132136_9797.png
dino_v8,1,914,NaN,bicycle,clock,270,0914_rot_dnn_270_clock_20_n02708093_3674.png
dino_v8,1,915,NaN,knife,bear,0,0915_rot_dnn_0_bear_20_n02132136_2799.png
dino_v8,1,916,NaN,knife,bird,270,0916_rot_dnn_270_bird_20_n01582220_6459.png
dino_v8,1,917,NaN,knife,bird,0,0917_rot_dnn_0_bird_20_n01817953_141.png
dino_v8,1,918,NaN,knife,bicycle,90,0918_rot_dnn_90_bicycle_20_n03792782_15016.png
dino_v8,1,919,NaN,bicycle,car,270,0919_rot_dnn_270_car_20_n04285008_17151.png
dino_v8,1,920,NaN,bicycle,truck,180,0920_rot_dnn_180_truck_20_n03796401_2258.png
dino_v8,1,921,NaN,airplane,knife,0,0921_rot_dnn_0_knife_20_n03041632_10263.png
dino_v8,1,922,NaN,boat,knife,90,0922_rot_dnn_90_knife_20_n03041632_30079.png
dino_v8,1,923,NaN,knife,oven,0,0923_rot_dnn_0_oven_20_n04111531_24065.png
dino_v8,1,924,NaN,chair,airplane,180,0924_rot_dnn_180_airplane_20_n02690373_3669.png
dino_v8,1,925,NaN,knife,boat,180,0925_rot_dnn_180_boat_20_n02951358_3819.png
dino_v8,1,926,NaN,airplane,clock,0,0926_rot_dnn_0_clock_20_n04548280_8278.png
dino_v8,1,927,NaN,clock,bird,0,0927_rot_dnn_0_bird_20_n01855672_55568.png
dino_v8,1,928,NaN,elephant,keyboard,90,0928_rot_dnn_90_keyboard_20_n04505470_961.png
dino_v8,1,929,NaN,knife,bear,0,0929_rot_dnn_0_bear_20_n02133161_2040.png
dino_v8,1,930,NaN,knife,chair,270,0930_rot_dnn_270_chair_20_n04099969_9243.png
dino_v8,1,931,NaN,bicycle,truck,90,0931_rot_dnn_90_truck_20_n04467665_15994.png
dino_v8,1,932,NaN,chair,knife,270,0932_rot_dnn_270_knife_20_n03041632_29940.png
dino_v8,1,933,NaN,boat,clock,180,0933_rot_dnn_180_clock_20_n03196217_1271.png
dino_v8,1,934,NaN,chair,knife,180,0934_rot_dnn_180_knife_20_n03041632_33268.png
dino_v8,1,935,NaN,knife,cat,270,0935_rot_dnn_270_cat_20_n02123045_13025.png
dino_v8,1,936,NaN,chair,elephant,270,0936_rot_dnn_270_elephant_20_n02504013_4339.png
dino_v8,1,937,NaN,chair,airplane,90,0937_rot_dnn_90_airplane_20_n02690373_3050.png
dino_v8,1,938,NaN,airplane,chair,90,0938_rot_dnn_90_chair_20_n04099969_2561.png
dino_v8,1,939,NaN,chair,dog,180,0939_rot_dnn_180_dog_20_n02097047_5605.png
dino_v8,1,940,NaN,chair,airplane,180,0940_rot_dnn_180_airplane_20_n02690373_6332.png
dino_v8,1,941,NaN,keyboard,bottle,180,0941_rot_dnn_180_bottle_20_n02823428_3298.png
dino_v8,1,942,NaN,knife,cat,90,0942_rot_dnn_90_cat_20_n02124075_1121.png
dino_v8,1,943,NaN,knife,bicycle,90,0943_rot_dnn_90_bicycle_20_n03792782_42978.png
dino_v8,1,944,NaN,chair,bottle,0,0944_rot_dnn_0_bottle_20_n04560804_15625.png
dino_v8,1,945,NaN,clock,boat,180,0945_rot_dnn_180_boat_20_n04612504_13034.png
dino_v8,1,946,NaN,airplane,dog,180,0946_rot_dnn_180_dog_20_n02099267_4999.png
dino_v8,1,947,NaN,knife,chair,0,0947_rot_dnn_0_chair_20_n04099969_6431.png
dino_v8,1,948,NaN,knife,truck,0,0948_rot_dnn_0_truck_20_n03417042_6975.png
dino_v8,1,949,NaN,chair,dog,270,0949_rot_dnn_270_dog_20_n02113023_291.png
dino_v8,1,950,NaN,chair,airplane,180,0950_rot_dnn_180_airplane_20_n02690373_2038.png
dino_v8,1,951,NaN,bear,bear,90,0951_rot_dnn_90_bear_20_n02134418_5783.png
dino_v8,1,952,NaN,knife,airplane,90,0952_rot_dnn_90_airplane_20_n02690373_12929.png
dino_v8,1,953,NaN,knife,oven,90,0953_rot_dnn_90_oven_20_n04111531_2618.png
dino_v8,1,954,NaN,knife,bird,180,0954_rot_dnn_180_bird_20_n02009912_18708.png
dino_v8,1,955,NaN,chair,clock,0,0955_rot_dnn_0_clock_20_n03196217_1255.png
dino_v8,1,956,NaN,clock,airplane,180,0956_rot_dnn_180_airplane_20_n02690373_2128.png
dino_v8,1,957,NaN,chair,airplane,180,0957_rot_dnn_180_airplane_20_n02690373_852.png
dino_v8,1,958,NaN,bicycle,oven,270,0958_rot_dnn_270_oven_20_n04111531_18430.png
dino_v8,1,959,NaN,knife,bird,0,0959_rot_dnn_0_bird_20_n01534433_1227.png
dino_v8,1,960,NaN,elephant,car,0,0960_rot_dnn_0_car_20_n03100240_3927.png
dino_v8,1,961,NaN,bear,knife,0,0961_rot_dnn_0_knife_20_n03041632_43289.png
dino_v8,1,962,NaN,knife,dog,180,0962_rot_dnn_180_dog_20_n02109961_36163.png
dino_v8,1,963,NaN,chair,airplane,0,0963_rot_dnn_0_airplane_20_n02690373_2379.png
dino_v8,1,964,NaN,chair,oven,270,0964_rot_dnn_270_oven_20_n04111531_9429.png
dino_v8,1,965,NaN,knife,keyboard,0,0965_rot_dnn_0_keyboard_20_n04505470_763.png
dino_v8,1,966,NaN,airplane,oven,90,0966_rot_dnn_90_oven_20_n04111531_4327.png
dino_v8,1,967,NaN,keyboard,boat,270,0967_rot_dnn_270_boat_20_n03344393_1533.png
dino_v8,1,968,NaN,chair,elephant,180,0968_rot_dnn_180_elephant_20_n02504458_1504.png
dino_v8,1,969,NaN,chair,dog,0,0969_rot_dnn_0_dog_20_n02091831_332.png
dino_v8,1,970,NaN,knife,knife,270,0970_rot_dnn_270_knife_20_n03041632_7205.png
dino_v8,1,971,NaN,knife,dog,0,0971_rot_dnn_0_dog_20_n02104029_4770.png
dino_v8,1,972,NaN,chair,elephant,0,0972_rot_dnn_0_elephant_20_n02504013_1636.png
dino_v8,1,973,NaN,knife,cat,270,0973_rot_dnn_270_cat_20_n02123597_6434.png
dino_v8,1,974,NaN,car,airplane,270,0974_rot_dnn_270_airplane_20_n02690373_4434.png
dino_v8,1,975,NaN,boat,bicycle,180,0975_rot_dnn_180_bicycle_20_n03792782_70555.png
dino_v8,1,976,NaN,knife,bear,90,0976_rot_dnn_90_bear_20_n02132136_14056.png
dino_v8,1,977,NaN,car,car,270,0977_rot_dnn_270_car_20_n03100240_17226.png
dino_v8,1,978,NaN,bicycle,chair,180,0978_rot_dnn_180_chair_20_n02791124_880.png
dino_v8,1,979,NaN,airplane,elephant,270,0979_rot_dnn_270_elephant_20_n02504013_7724.png
dino_v8,1,980,NaN,knife,keyboard,90,0980_rot_dnn_90_keyboard_20_n04505470_4173.png
dino_v8,1,981,NaN,knife,boat,0,0981_rot_dnn_0_boat_20_n03344393_9127.png
dino_v8,1,982,NaN,chair,knife,180,0982_rot_dnn_180_knife_20_n03041632_39883.png
dino_v8,1,983,NaN,knife,bird,90,0983_rot_dnn_90_bird_20_n01797886_2347.png
dino_v8,1,984,NaN,chair,oven,90,0984_rot_dnn_90_oven_20_n04111531_11157.png
dino_v8,1,985,NaN,chair,airplane,270,0985_rot_dnn_270_airplane_20_n02690373_2584.png
dino_v8,1,986,NaN,bicycle,chair,180,0986_rot_dnn_180_chair_20_n02791124_3923.png
dino_v8,1,987,NaN,knife,bicycle,0,0987_rot_dnn_0_bicycle_20_n02835271_12743.png
dino_v8,1,988,NaN,car,truck,180,0988_rot_dnn_180_truck_20_n03417042_21663.png
dino_v8,1,989,NaN,chair,bicycle,270,0989_rot_dnn_270_bicycle_20_n03792782_50904.png
dino_v8,1,990,NaN,car,clock,0,0990_rot_dnn_0_clock_20_n03196217_5103.png
dino_v8,1,991,NaN,elephant,elephant,180,0991_rot_dnn_180_elephant_20_n02504458_5641.png
dino_v8,1,992,NaN,knife,airplane,0,0992_rot_dnn_0_airplane_20_n02690373_8163.png
dino_v8,1,993,NaN,bear,oven,270,0993_rot_dnn_270_oven_20_n04111531_22041.png
dino_v8,1,994,NaN,knife,dog,0,0994_rot_dnn_0_dog_20_n02106550_1763.png
dino_v8,1,995,NaN,chair,dog,270,0995_rot_dnn_270_dog_20_n02094433_1289.png
dino_v8,1,996,NaN,knife,keyboard,270,0996_rot_dnn_270_keyboard_20_n04505470_6662.png
dino_v8,1,997,NaN,oven,knife,180,0997_rot_dnn_180_knife_20_n03041632_24228.png
dino_v8,1,998,NaN,bicycle,truck,180,0998_rot_dnn_180_truck_20_n04467665_13225.png
dino_v8,1,999,NaN,keyboard,elephant,180,0999_rot_dnn_180_elephant_20_n02504013_7926.png
dino_v8,1,1000,NaN,knife,bicycle,0,1000_rot_dnn_0_bicycle_20_n02835271_9310.png
dino_v8,1,1001,NaN,bottle,clock,180,1001_rot_dnn_180_clock_20_n04548280_3305.png
dino_v8,1,1002,NaN,airplane,dog,270,1002_rot_dnn_270_dog_20_n02105505_3286.png
dino_v8,1,1003,NaN,chair,cat,180,1003_rot_dnn_180_cat_20_n02123045_5999.png
dino_v8,1,1004,NaN,bicycle,truck,180,1004_rot_dnn_180_truck_20_n03417042_5004.png
dino_v8,1,1005,NaN,knife,bird,270,1005_rot_dnn_270_bird_20_n02013706_652.png
dino_v8,1,1006,NaN,oven,bird,270,1006_rot_dnn_270_bird_20_n02018207_7930.png
dino_v8,1,1007,NaN,bicycle,truck,180,1007_rot_dnn_180_truck_20_n03417042_6539.png
dino_v8,1,1008,NaN,bicycle,elephant,90,1008_rot_dnn_90_elephant_20_n02504458_12090.png
dino_v8,1,1009,NaN,bicycle,truck,270,1009_rot_dnn_270_truck_20_n03417042_9552.png
dino_v8,1,1010,NaN,knife,dog,180,1010_rot_dnn_180_dog_20_n02111277_4038.png
dino_v8,1,1011,NaN,clock,bottle,270,1011_rot_dnn_270_bottle_20_n04591713_7036.png
dino_v8,1,1012,NaN,chair,chair,270,1012_rot_dnn_270_chair_20_n04429376_13448.png
dino_v8,1,1013,NaN,chair,oven,270,1013_rot_dnn_270_oven_20_n04111531_845.png
dino_v8,1,1014,NaN,chair,dog,90,1014_rot_dnn_90_dog_20_n02090622_7692.png
dino_v8,1,1015,NaN,bear,bottle,0,1015_rot_dnn_0_bottle_20_n03983396_17262.png
dino_v8,1,1016,NaN,knife,elephant,180,1016_rot_dnn_180_elephant_20_n02504458_1623.png
dino_v8,1,1017,NaN,bear,keyboard,180,1017_rot_dnn_180_keyboard_20_n03085013_20960.png
dino_v8,1,1018,NaN,knife,airplane,270,1018_rot_dnn_270_airplane_20_n02690373_2629.png
dino_v8,1,1019,NaN,car,cat,270,1019_rot_dnn_270_cat_20_n02123159_7369.png
dino_v8,1,1020,NaN,dog,bottle,90,1020_rot_dnn_90_bottle_20_n04560804_570.png
dino_v8,1,1021,NaN,bicycle,car,270,1021_rot_dnn_270_car_20_n02814533_89061.png
dino_v8,1,1022,NaN,oven,dog,180,1022_rot_dnn_180_dog_20_n02093754_918.png
dino_v8,1,1023,NaN,boat,truck,180,1023_rot_dnn_180_truck_20_n03796401_26894.png
dino_v8,1,1024,NaN,clock,truck,270,1024_rot_dnn_270_truck_20_n03417042_27780.png
dino_v8,1,1025,NaN,bicycle,car,180,1025_rot_dnn_180_car_20_n02814533_75923.png
dino_v8,1,1026,NaN,knife,boat,0,1026_rot_dnn_0_boat_20_n03662601_26140.png
dino_v8,1,1027,NaN,chair,elephant,180,1027_rot_dnn_180_elephant_20_n02504013_1644.png
dino_v8,1,1028,NaN,bottle,oven,180,1028_rot_dnn_180_oven_20_n04111531_704.png
dino_v8,1,1029,NaN,bicycle,boat,270,1029_rot_dnn_270_boat_20_n03344393_9390.png
dino_v8,1,1030,NaN,oven,dog,90,1030_rot_dnn_90_dog_20_n02097047_3817.png
dino_v8,1,1031,NaN,bicycle,elephant,270,1031_rot_dnn_270_elephant_20_n02504458_4001.png
dino_v8,1,1032,NaN,chair,elephant,180,1032_rot_dnn_180_elephant_20_n02504458_259.png
dino_v8,1,1033,NaN,knife,oven,180,1033_rot_dnn_180_oven_20_n04111531_4939.png
dino_v8,1,1034,NaN,bicycle,elephant,90,1034_rot_dnn_90_elephant_20_n02504458_2417.png
dino_v8,1,1035,NaN,elephant,elephant,270,1035_rot_dnn_270_elephant_20_n02504458_30.png
dino_v8,1,1036,NaN,elephant,chair,270,1036_rot_dnn_270_chair_20_n04099969_41686.png
dino_v8,1,1037,NaN,airplane,knife,270,1037_rot_dnn_270_knife_20_n03041632_46112.png
dino_v8,1,1038,NaN,chair,oven,270,1038_rot_dnn_270_oven_20_n04111531_10722.png
dino_v8,1,1039,NaN,oven,knife,270,1039_rot_dnn_270_knife_20_n03041632_751.png
dino_v8,1,1040,NaN,knife,clock,270,1040_rot_dnn_270_clock_20_n03196217_8887.png
dino_v8,1,1041,NaN,bear,chair,180,1041_rot_dnn_180_chair_20_n02791124_2938.png
dino_v8,1,1042,NaN,knife,chair,90,1042_rot_dnn_90_chair_20_n02791124_1740.png
dino_v8,1,1043,NaN,bear,bicycle,90,1043_rot_dnn_90_bicycle_20_n03792782_442.png
dino_v8,1,1044,NaN,chair,car,180,1044_rot_dnn_180_car_20_n03100240_6479.png
dino_v8,1,1045,NaN,knife,keyboard,180,1045_rot_dnn_180_keyboard_20_n03085013_24316.png
dino_v8,1,1046,NaN,bicycle,elephant,90,1046_rot_dnn_90_elephant_20_n02504013_1500.png
dino_v8,1,1047,NaN,bicycle,truck,180,1047_rot_dnn_180_truck_20_n03417042_189.png
dino_v8,1,1048,NaN,chair,dog,180,1048_rot_dnn_180_dog_20_n02090721_1449.png
dino_v8,1,1049,NaN,bicycle,clock,270,1049_rot_dnn_270_clock_20_n03196217_3194.png
dino_v8,1,1050,NaN,knife,knife,0,1050_rot_dnn_0_knife_20_n03041632_4279.png
dino_v8,1,1051,NaN,bicycle,boat,270,1051_rot_dnn_270_boat_20_n02951358_4937.png
dino_v8,1,1052,NaN,oven,clock,180,1052_rot_dnn_180_clock_20_n03196217_946.png
dino_v8,1,1053,NaN,knife,clock,0,1053_rot_dnn_0_clock_20_n04548280_6776.png
dino_v8,1,1054,NaN,chair,dog,90,1054_rot_dnn_90_dog_20_n02108551_7945.png
dino_v8,1,1055,NaN,bicycle,knife,90,1055_rot_dnn_90_knife_20_n03041632_19571.png
dino_v8,1,1056,NaN,keyboard,knife,270,1056_rot_dnn_270_knife_20_n03041632_29886.png
dino_v8,1,1057,NaN,chair,oven,270,1057_rot_dnn_270_oven_20_n04111531_5015.png
dino_v8,1,1058,NaN,oven,bottle,180,1058_rot_dnn_180_bottle_20_n02823428_8392.png
dino_v8,1,1059,NaN,knife,bird,90,1059_rot_dnn_90_bird_20_n01592084_6242.png
dino_v8,1,1060,NaN,knife,bottle,0,1060_rot_dnn_0_bottle_20_n03937543_7357.png
dino_v8,1,1061,NaN,knife,truck,270,1061_rot_dnn_270_truck_20_n03796401_7455.png
dino_v8,1,1062,NaN,knife,clock,180,1062_rot_dnn_180_clock_20_n04548280_2313.png
dino_v8,1,1063,NaN,knife,airplane,90,1063_rot_dnn_90_airplane_20_n02690373_5748.png
dino_v8,1,1064,NaN,elephant,elephant,90,1064_rot_dnn_90_elephant_20_n02504013_673.png
dino_v8,1,1065,NaN,knife,keyboard,180,1065_rot_dnn_180_keyboard_20_n04505470_4384.png
dino_v8,1,1066,NaN,chair,bird,180,1066_rot_dnn_180_bird_20_n02051845_8617.png
dino_v8,1,1067,NaN,knife,bicycle,90,1067_rot_dnn_90_bicycle_20_n03792782_47774.png
dino_v8,1,1068,NaN,car,oven,270,1068_rot_dnn_270_oven_20_n04111531_12952.png
dino_v8,1,1069,NaN,chair,oven,180,1069_rot_dnn_180_oven_20_n04111531_2199.png
dino_v8,1,1070,NaN,keyboard,car,90,1070_rot_dnn_90_car_20_n04285008_8519.png
dino_v8,1,1071,NaN,clock,boat,0,1071_rot_dnn_0_boat_20_n03344393_8032.png
dino_v8,1,1072,NaN,chair,knife,0,1072_rot_dnn_0_knife_20_n03041632_6557.png
dino_v8,1,1073,NaN,knife,boat,0,1073_rot_dnn_0_boat_20_n04273569_11502.png
dino_v8,1,1074,NaN,keyboard,car,270,1074_rot_dnn_270_car_20_n03100240_7741.png
dino_v8,1,1075,NaN,knife,elephant,180,1075_rot_dnn_180_elephant_20_n02504013_5035.png
dino_v8,1,1076,NaN,clock,chair,90,1076_rot_dnn_90_chair_20_n02791124_5749.png
dino_v8,1,1077,NaN,bear,cat,270,1077_rot_dnn_270_cat_20_n02123045_8409.png
dino_v8,1,1078,NaN,cat,airplane,270,1078_rot_dnn_270_airplane_20_n02690373_8740.png
dino_v8,1,1079,NaN,oven,knife,90,1079_rot_dnn_90_knife_20_n03041632_84012.png
dino_v8,1,1080,NaN,chair,chair,0,1080_rot_dnn_0_chair_20_n04099969_17087.png
dino_v8,1,1081,NaN,bicycle,elephant,270,1081_rot_dnn_270_elephant_20_n02504013_522.png
dino_v8,1,1082,NaN,boat,keyboard,0,1082_rot_dnn_0_keyboard_20_n03085013_22217.png
dino_v8,1,1083,NaN,keyboard,truck,0,1083_rot_dnn_0_truck_20_n03796401_6294.png
dino_v8,1,1084,NaN,knife,clock,90,1084_rot_dnn_90_clock_20_n03196217_421.png
dino_v8,1,1085,NaN,bicycle,bottle,90,1085_rot_dnn_90_bottle_20_n04591713_1824.png
dino_v8,1,1086,NaN,bicycle,chair,90,1086_rot_dnn_90_chair_20_n03376595_8064.png
dino_v8,1,1087,NaN,knife,airplane,90,1087_rot_dnn_90_airplane_20_n02690373_2675.png
dino_v8,1,1088,NaN,knife,keyboard,180,1088_rot_dnn_180_keyboard_20_n03085013_20478.png
dino_v8,1,1089,NaN,keyboard,car,0,1089_rot_dnn_0_car_20_n03100240_24420.png
dino_v8,1,1090,NaN,knife,bird,90,1090_rot_dnn_90_bird_20_n02011460_22646.png
dino_v8,1,1091,NaN,car,clock,0,1091_rot_dnn_0_clock_20_n03196217_4254.png
dino_v8,1,1092,NaN,knife,cat,0,1092_rot_dnn_0_cat_20_n02124075_13577.png
dino_v8,1,1093,NaN,bear,chair,270,1093_rot_dnn_270_chair_20_n04099969_130.png
dino_v8,1,1094,NaN,chair,oven,270,1094_rot_dnn_270_oven_20_n04111531_6863.png
dino_v8,1,1095,NaN,knife,bicycle,270,1095_rot_dnn_270_bicycle_20_n02835271_8757.png
dino_v8,1,1096,NaN,knife,oven,180,1096_rot_dnn_180_oven_20_n04111531_16708.png
dino_v8,1,1097,NaN,bird,bird,90,1097_rot_dnn_90_bird_20_n02006656_4486.png
dino_v8,1,1098,NaN,car,keyboard,90,1098_rot_dnn_90_keyboard_20_n04505470_816.png
dino_v8,1,1099,NaN,knife,bear,270,1099_rot_dnn_270_bear_20_n02134418_1388.png
dino_v8,1,1100,NaN,knife,keyboard,90,1100_rot_dnn_90_keyboard_20_n04505470_3207.png
dino_v8,1,1101,NaN,knife,oven,0,1101_rot_dnn_0_oven_20_n04111531_4845.png
dino_v8,1,1102,NaN,car,dog,270,1102_rot_dnn_270_dog_20_n02108551_1207.png
dino_v8,1,1103,NaN,knife,truck,0,1103_rot_dnn_0_truck_20_n04467665_8189.png
dino_v8,1,1104,NaN,knife,cat,180,1104_rot_dnn_180_cat_20_n02124075_13437.png
dino_v8,1,1105,NaN,keyboard,clock,180,1105_rot_dnn_180_clock_20_n02708093_2900.png
dino_v8,1,1106,NaN,knife,truck,0,1106_rot_dnn_0_truck_20_n03417042_19355.png
dino_v8,1,1107,NaN,knife,oven,270,1107_rot_dnn_270_oven_20_n04111531_6533.png
dino_v8,1,1108,NaN,bicycle,bear,270,1108_rot_dnn_270_bear_20_n02132136_9358.png
dino_v8,1,1109,NaN,knife,bicycle,180,1109_rot_dnn_180_bicycle_20_n03792782_3591.png
dino_v8,1,1110,NaN,bear,bear,90,1110_rot_dnn_90_bear_20_n02134418_1026.png
dino_v8,1,1111,NaN,chair,bottle,180,1111_rot_dnn_180_bottle_20_n03983396_2002.png
dino_v8,1,1112,NaN,chair,car,90,1112_rot_dnn_90_car_20_n03100240_7495.png
dino_v8,1,1113,NaN,car,bottle,180,1113_rot_dnn_180_bottle_20_n03983396_5883.png
dino_v8,1,1114,NaN,keyboard,bicycle,270,1114_rot_dnn_270_bicycle_20_n03792782_29606.png
dino_v8,1,1115,NaN,chair,bird,0,1115_rot_dnn_0_bird_20_n02013706_7808.png
dino_v8,1,1116,NaN,knife,clock,90,1116_rot_dnn_90_clock_20_n03196217_4578.png
dino_v8,1,1117,NaN,chair,bear,180,1117_rot_dnn_180_bear_20_n02132136_9703.png
dino_v8,1,1118,NaN,clock,boat,0,1118_rot_dnn_0_boat_20_n03344393_2866.png
dino_v8,1,1119,NaN,knife,cat,270,1119_rot_dnn_270_cat_20_n02125311_21290.png
dino_v8,1,1120,NaN,bicycle,car,180,1120_rot_dnn_180_car_20_n03100240_7781.png
dino_v8,1,1121,NaN,airplane,dog,180,1121_rot_dnn_180_dog_20_n02087394_9693.png
dino_v8,1,1122,NaN,knife,cat,180,1122_rot_dnn_180_cat_20_n02123159_2285.png
dino_v8,1,1123,NaN,oven,boat,270,1123_rot_dnn_270_boat_20_n03344393_3877.png
dino_v8,1,1124,NaN,knife,bottle,270,1124_rot_dnn_270_bottle_20_n03983396_22816.png
dino_v8,1,1125,NaN,airplane,clock,270,1125_rot_dnn_270_clock_20_n03196217_2022.png
dino_v8,1,1126,NaN,knife,car,180,1126_rot_dnn_180_car_20_n04285008_8530.png
dino_v8,1,1127,NaN,knife,bear,270,1127_rot_dnn_270_bear_20_n02134084_147.png
dino_v8,1,1128,NaN,clock,boat,0,1128_rot_dnn_0_boat_20_n02951358_18762.png
dino_v8,1,1129,NaN,bear,knife,180,1129_rot_dnn_180_knife_20_n03041632_4318.png
dino_v8,1,1130,NaN,keyboard,bottle,180,1130_rot_dnn_180_bottle_20_n04591713_6169.png
dino_v8,1,1131,NaN,knife,cat,270,1131_rot_dnn_270_cat_20_n02123159_5939.png
dino_v8,1,1132,NaN,chair,bear,270,1132_rot_dnn_270_bear_20_n02132136_3207.png
dino_v8,1,1133,NaN,chair,dog,270,1133_rot_dnn_270_dog_20_n02107683_7183.png
dino_v8,1,1134,NaN,keyboard,bottle,270,1134_rot_dnn_270_bottle_20_n02823428_10946.png
dino_v8,1,1135,NaN,elephant,elephant,270,1135_rot_dnn_270_elephant_20_n02504013_4762.png
dino_v8,1,1136,NaN,knife,boat,90,1136_rot_dnn_90_boat_20_n04273569_17255.png
dino_v8,1,1137,NaN,airplane,knife,90,1137_rot_dnn_90_knife_20_n03041632_26710.png
dino_v8,1,1138,NaN,keyboard,car,0,1138_rot_dnn_0_car_20_n02814533_40531.png
dino_v8,1,1139,NaN,elephant,bottle,270,1139_rot_dnn_270_bottle_20_n04591713_3663.png
dino_v8,1,1140,NaN,bicycle,truck,90,1140_rot_dnn_90_truck_20_n03417042_28657.png
dino_v8,1,1141,NaN,knife,elephant,90,1141_rot_dnn_90_elephant_20_n02504013_318.png
dino_v8,1,1142,NaN,bicycle,elephant,270,1142_rot_dnn_270_elephant_20_n02504013_1761.png
dino_v8,1,1143,NaN,clock,bottle,180,1143_rot_dnn_180_bottle_20_n02823428_8077.png
dino_v8,1,1144,NaN,bear,truck,90,1144_rot_dnn_90_truck_20_n04467665_90715.png
dino_v8,1,1145,NaN,bicycle,car,90,1145_rot_dnn_90_car_20_n02814533_31743.png
dino_v8,1,1146,NaN,chair,chair,90,1146_rot_dnn_90_chair_20_n03376595_14588.png
dino_v8,1,1147,NaN,chair,knife,0,1147_rot_dnn_0_knife_20_n03041632_100645.png
dino_v8,1,1148,NaN,knife,airplane,180,1148_rot_dnn_180_airplane_20_n02690373_9293.png
dino_v8,1,1149,NaN,bicycle,airplane,90,1149_rot_dnn_90_airplane_20_n02690373_4714.png
dino_v8,1,1150,NaN,keyboard,boat,180,1150_rot_dnn_180_boat_20_n03344393_8749.png
dino_v8,1,1151,NaN,knife,bicycle,0,1151_rot_dnn_0_bicycle_20_n02835271_8137.png
dino_v8,1,1152,NaN,knife,cat,0,1152_rot_dnn_0_cat_20_n02124075_9358.png
dino_v8,1,1153,NaN,airplane,bottle,270,1153_rot_dnn_270_bottle_20_n03983396_11236.png
dino_v8,1,1154,NaN,chair,dog,180,1154_rot_dnn_180_dog_20_n02107142_4461.png
dino_v8,1,1155,NaN,knife,airplane,0,1155_rot_dnn_0_airplane_20_n02690373_17731.png
dino_v8,1,1156,NaN,keyboard,car,90,1156_rot_dnn_90_car_20_n04285008_8102.png
dino_v8,1,1157,NaN,cat,knife,90,1157_rot_dnn_90_knife_20_n03041632_17859.png
dino_v8,1,1158,NaN,car,car,90,1158_rot_dnn_90_car_20_n02814533_14121.png
dino_v8,1,1159,NaN,knife,keyboard,0,1159_rot_dnn_0_keyboard_20_n04505470_4619.png
dino_v8,1,1160,NaN,knife,dog,270,1160_rot_dnn_270_dog_20_n02107683_2450.png
dino_v8,1,1161,NaN,knife,dog,90,1161_rot_dnn_90_dog_20_n02087394_2278.png
dino_v8,1,1162,NaN,bear,keyboard,270,1162_rot_dnn_270_keyboard_20_n03085013_24228.png
dino_v8,1,1163,NaN,knife,keyboard,0,1163_rot_dnn_0_keyboard_20_n03085013_24103.png
dino_v8,1,1164,NaN,airplane,truck,270,1164_rot_dnn_270_truck_20_n03796401_6346.png
dino_v8,1,1165,NaN,knife,keyboard,0,1165_rot_dnn_0_keyboard_20_n03085013_23834.png
dino_v8,1,1166,NaN,bear,bottle,270,1166_rot_dnn_270_bottle_20_n04579145_3729.png
dino_v8,1,1167,NaN,knife,bear,90,1167_rot_dnn_90_bear_20_n02132136_11339.png
dino_v8,1,1168,NaN,chair,bottle,180,1168_rot_dnn_180_bottle_20_n04557648_4242.png
dino_v8,1,1169,NaN,airplane,bear,270,1169_rot_dnn_270_bear_20_n02132136_15168.png
dino_v8,1,1170,NaN,airplane,dog,180,1170_rot_dnn_180_dog_20_n02097658_3358.png
dino_v8,1,1171,NaN,knife,bicycle,0,1171_rot_dnn_0_bicycle_20_n02835271_12984.png
dino_v8,1,1172,NaN,knife,boat,180,1172_rot_dnn_180_boat_20_n04273569_7818.png
dino_v8,1,1173,NaN,oven,airplane,270,1173_rot_dnn_270_airplane_20_n02690373_8746.png
dino_v8,1,1174,NaN,airplane,elephant,0,1174_rot_dnn_0_elephant_20_n02504013_1370.png
dino_v8,1,1175,NaN,bicycle,bicycle,180,1175_rot_dnn_180_bicycle_20_n03792782_1173.png
dino_v8,1,1176,NaN,oven,clock,270,1176_rot_dnn_270_clock_20_n03196217_6198.png
dino_v8,1,1177,NaN,chair,truck,0,1177_rot_dnn_0_truck_20_n03417042_15196.png
dino_v8,1,1178,NaN,elephant,car,270,1178_rot_dnn_270_car_20_n02814533_88566.png
dino_v8,1,1179,NaN,chair,chair,270,1179_rot_dnn_270_chair_20_n02791124_4412.png
dino_v8,1,1180,NaN,knife,bird,90,1180_rot_dnn_90_bird_20_n01582220_7400.png
dino_v8,1,1181,NaN,oven,boat,90,1181_rot_dnn_90_boat_20_n04273569_19314.png
dino_v8,1,1182,NaN,keyboard,keyboard,90,1182_rot_dnn_90_keyboard_20_n03085013_8334.png
dino_v8,1,1183,NaN,bicycle,keyboard,90,1183_rot_dnn_90_keyboard_20_n03085013_12678.png
dino_v8,1,1184,NaN,bicycle,cat,90,1184_rot_dnn_90_cat_20_n02125311_18552.png
dino_v8,1,1185,NaN,bear,bear,270,1185_rot_dnn_270_bear_20_n02134084_7345.png
dino_v8,1,1186,NaN,knife,clock,90,1186_rot_dnn_90_clock_20_n04548280_3531.png
dino_v8,1,1187,NaN,chair,car,90,1187_rot_dnn_90_car_20_n03100240_1153.png
dino_v8,1,1188,NaN,cat,car,180,1188_rot_dnn_180_car_20_n02814533_38205.png
dino_v8,1,1189,NaN,bicycle,chair,270,1189_rot_dnn_270_chair_20_n04099969_18678.png
dino_v8,1,1190,NaN,chair,truck,270,1190_rot_dnn_270_truck_20_n04467665_5275.png
dino_v8,1,1191,NaN,bicycle,truck,270,1191_rot_dnn_270_truck_20_n04467665_67908.png
dino_v8,1,1192,NaN,knife,elephant,0,1192_rot_dnn_0_elephant_20_n02504458_4482.png
dino_v8,1,1193,NaN,bicycle,boat,270,1193_rot_dnn_270_boat_20_n02951358_15412.png
dino_v8,1,1194,NaN,chair,elephant,180,1194_rot_dnn_180_elephant_20_n02504013_10719.png
dino_v8,1,1195,NaN,clock,boat,180,1195_rot_dnn_180_boat_20_n03662601_9140.png
dino_v8,1,1196,NaN,knife,bicycle,90,1196_rot_dnn_90_bicycle_20_n02835271_27014.png
dino_v8,1,1197,NaN,airplane,chair,0,1197_rot_dnn_0_chair_20_n04429376_1137.png
dino_v8,1,1198,NaN,knife,truck,0,1198_rot_dnn_0_truck_20_n03417042_11446.png
dino_v8,1,1199,NaN,chair,dog,0,1199_rot_dnn_0_dog_20_n02109525_63913.png
dino_v8,1,1200,NaN,keyboard,boat,90,1200_rot_dnn_90_boat_20_n04612504_3286.png
dino_v8,1,1201,NaN,knife,bird,0,1201_rot_dnn_0_bird_20_n01797886_2045.png
dino_v8,1,1202,NaN,knife,bird,180,1202_rot_dnn_180_bird_20_n02018795_16942.png
dino_v8,1,1203,NaN,knife,cat,180,1203_rot_dnn_180_cat_20_n02123159_5548.png
dino_v8,1,1204,NaN,chair,dog,180,1204_rot_dnn_180_dog_20_n02096051_892.png
dino_v8,1,1205,NaN,knife,car,270,1205_rot_dnn_270_car_20_n03100240_7085.png
dino_v8,1,1206,NaN,elephant,knife,180,1206_rot_dnn_180_knife_20_n03041632_19971.png
dino_v8,1,1207,NaN,knife,cat,0,1207_rot_dnn_0_cat_20_n02123045_455.png
dino_v8,1,1208,NaN,knife,bicycle,270,1208_rot_dnn_270_bicycle_20_n03792782_68417.png
dino_v8,1,1209,NaN,clock,oven,0,1209_rot_dnn_0_oven_20_n04111531_7045.png
dino_v8,1,1210,NaN,keyboard,chair,270,1210_rot_dnn_270_chair_20_n03376595_6445.png
dino_v8,1,1211,NaN,knife,knife,270,1211_rot_dnn_270_knife_20_n03041632_31367.png
dino_v8,1,1212,NaN,clock,bottle,90,1212_rot_dnn_90_bottle_20_n03937543_5619.png
dino_v8,1,1213,NaN,knife,bicycle,270,1213_rot_dnn_270_bicycle_20_n03792782_52601.png
dino_v8,1,1214,NaN,knife,bird,270,1214_rot_dnn_270_bird_20_n01843383_6107.png
dino_v8,1,1215,NaN,bicycle,truck,180,1215_rot_dnn_180_truck_20_n03796401_22323.png
dino_v8,1,1216,NaN,oven,elephant,270,1216_rot_dnn_270_elephant_20_n02504458_1893.png
dino_v8,1,1217,NaN,oven,boat,270,1217_rot_dnn_270_boat_20_n03662601_20059.png
dino_v8,1,1218,NaN,elephant,airplane,0,1218_rot_dnn_0_airplane_20_n02690373_4029.png
dino_v8,1,1219,NaN,knife,oven,0,1219_rot_dnn_0_oven_20_n04111531_9210.png
dino_v8,1,1220,NaN,truck,chair,180,1220_rot_dnn_180_chair_20_n04099969_3485.png
dino_v8,1,1221,NaN,knife,bear,270,1221_rot_dnn_270_bear_20_n02134084_17215.png
dino_v8,1,1222,NaN,boat,chair,180,1222_rot_dnn_180_chair_20_n02791124_4369.png
dino_v8,1,1223,NaN,car,elephant,90,1223_rot_dnn_90_elephant_20_n02504458_5759.png
dino_v8,1,1224,NaN,knife,oven,90,1224_rot_dnn_90_oven_20_n04111531_4375.png
dino_v8,1,1225,NaN,airplane,truck,90,1225_rot_dnn_90_truck_20_n04467665_64792.png
dino_v8,1,1226,NaN,knife,bicycle,180,1226_rot_dnn_180_bicycle_20_n03792782_42626.png
dino_v8,1,1227,NaN,knife,dog,180,1227_rot_dnn_180_dog_20_n02088094_13379.png
dino_v8,1,1228,NaN,cat,keyboard,270,1228_rot_dnn_270_keyboard_20_n03085013_1129.png
dino_v8,1,1229,NaN,knife,truck,0,1229_rot_dnn_0_truck_20_n04467665_49132.png
dino_v8,1,1230,NaN,airplane,clock,180,1230_rot_dnn_180_clock_20_n04548280_5286.png
dino_v8,1,1231,NaN,car,bear,90,1231_rot_dnn_90_bear_20_n02132136_1285.png
dino_v8,1,1232,NaN,knife,bicycle,0,1232_rot_dnn_0_bicycle_20_n03792782_63201.png
dino_v8,1,1233,NaN,knife,elephant,90,1233_rot_dnn_90_elephant_20_n02504013_5636.png
dino_v8,1,1234,NaN,knife,bicycle,0,1234_rot_dnn_0_bicycle_20_n02835271_6873.png
dino_v8,1,1235,NaN,knife,bird,270,1235_rot_dnn_270_bird_20_n02028035_32824.png
dino_v8,1,1236,NaN,knife,oven,270,1236_rot_dnn_270_oven_20_n04111531_22386.png
dino_v8,1,1237,NaN,knife,airplane,0,1237_rot_dnn_0_airplane_20_n02690373_4979.png
dino_v8,1,1238,NaN,knife,cat,270,1238_rot_dnn_270_cat_20_n02124075_2986.png
dino_v8,1,1239,NaN,dog,oven,90,1239_rot_dnn_90_oven_20_n04111531_5328.png
dino_v8,1,1240,NaN,chair,elephant,180,1240_rot_dnn_180_elephant_20_n02504013_10257.png
dino_v8,1,1241,NaN,bicycle,bottle,0,1241_rot_dnn_0_bottle_20_n02823428_3694.png
dino_v8,1,1242,NaN,chair,knife,180,1242_rot_dnn_180_knife_20_n03041632_20413.png
dino_v8,1,1243,NaN,knife,airplane,90,1243_rot_dnn_90_airplane_20_n02690373_10727.png
dino_v8,1,1244,NaN,keyboard,car,90,1244_rot_dnn_90_car_20_n02814533_71641.png
dino_v8,1,1245,NaN,knife,keyboard,180,1245_rot_dnn_180_keyboard_20_n04505470_4473.png
dino_v8,1,1246,NaN,knife,cat,90,1246_rot_dnn_90_cat_20_n02123394_2269.png
dino_v8,1,1247,NaN,airplane,bottle,270,1247_rot_dnn_270_bottle_20_n04579145_631.png
dino_v8,1,1248,NaN,bear,bear,90,1248_rot_dnn_90_bear_20_n02134418_5071.png
dino_v8,1,1249,NaN,knife,dog,0,1249_rot_dnn_0_dog_20_n02107908_8891.png
dino_v8,1,1250,NaN,car,keyboard,270,1250_rot_dnn_270_keyboard_20_n03085013_22175.png
dino_v8,1,1251,NaN,chair,elephant,0,1251_rot_dnn_0_elephant_20_n02504013_18792.png
dino_v8,1,1252,NaN,cat,bottle,180,1252_rot_dnn_180_bottle_20_n04579145_1646.png
dino_v8,1,1253,NaN,bicycle,keyboard,270,1253_rot_dnn_270_keyboard_20_n04505470_1929.png
dino_v8,1,1254,NaN,knife,keyboard,180,1254_rot_dnn_180_keyboard_20_n03085013_22698.png
