subj,session,trial,rt,object_response,category,condition,imagename
mlp_mixer,1,1,NaN,clock,airplane,NaN,airplane1.png
mlp_mixer,1,2,NaN,clock,airplane,NaN,airplane10.png
mlp_mixer,1,3,NaN,oven,airplane,NaN,airplane2.png
mlp_mixer,1,4,NaN,clock,airplane,NaN,airplane3.png
mlp_mixer,1,5,NaN,clock,airplane,NaN,airplane4.png
mlp_mixer,1,6,NaN,chair,airplane,NaN,airplane5.png
mlp_mixer,1,7,NaN,knife,airplane,NaN,airplane6.png
mlp_mixer,1,8,NaN,cat,airplane,NaN,airplane7.png
mlp_mixer,1,9,NaN,clock,airplane,NaN,airplane8.png
mlp_mixer,1,10,NaN,clock,airplane,NaN,airplane9.png
mlp_mixer,1,11,NaN,oven,bear,NaN,bear1.png
mlp_mixer,1,12,NaN,clock,bear,NaN,bear10.png
mlp_mixer,1,13,NaN,chair,bear,NaN,bear2.png
mlp_mixer,1,14,NaN,chair,bear,NaN,bear3.png
mlp_mixer,1,15,NaN,clock,bear,NaN,bear4.png
mlp_mixer,1,16,NaN,clock,bear,NaN,bear5.png
mlp_mixer,1,17,NaN,clock,bear,NaN,bear6.png
mlp_mixer,1,18,NaN,clock,bear,NaN,bear7.png
mlp_mixer,1,19,NaN,knife,bear,NaN,bear8.png
mlp_mixer,1,20,NaN,clock,bear,NaN,bear9.png
mlp_mixer,1,21,NaN,clock,bicycle,NaN,bicycle1.png
mlp_mixer,1,22,NaN,clock,bicycle,NaN,bicycle10.png
mlp_mixer,1,23,NaN,clock,bicycle,NaN,bicycle2.png
mlp_mixer,1,24,NaN,clock,bicycle,NaN,bicycle3.png
mlp_mixer,1,25,NaN,clock,bicycle,NaN,bicycle4.png
mlp_mixer,1,26,NaN,clock,bicycle,NaN,bicycle5.png
mlp_mixer,1,27,NaN,chair,bicycle,NaN,bicycle6.png
mlp_mixer,1,28,NaN,bottle,bicycle,NaN,bicycle7.png
mlp_mixer,1,29,NaN,chair,bicycle,NaN,bicycle8.png
mlp_mixer,1,30,NaN,bicycle,bicycle,NaN,bicycle9.png
mlp_mixer,1,31,NaN,bottle,bird,NaN,bird1.png
mlp_mixer,1,32,NaN,clock,bird,NaN,bird10.png
mlp_mixer,1,33,NaN,clock,bird,NaN,bird2.png
mlp_mixer,1,34,NaN,clock,bird,NaN,bird3.png
mlp_mixer,1,35,NaN,clock,bird,NaN,bird4.png
mlp_mixer,1,36,NaN,bicycle,bird,NaN,bird5.png
mlp_mixer,1,37,NaN,clock,bird,NaN,bird6.png
mlp_mixer,1,38,NaN,clock,bird,NaN,bird7.png
mlp_mixer,1,39,NaN,clock,bird,NaN,bird8.png
mlp_mixer,1,40,NaN,oven,bird,NaN,bird9.png
mlp_mixer,1,41,NaN,chair,boat,NaN,boat1.png
mlp_mixer,1,42,NaN,knife,boat,NaN,boat10.png
mlp_mixer,1,43,NaN,chair,boat,NaN,boat2.png
mlp_mixer,1,44,NaN,clock,boat,NaN,boat3.png
mlp_mixer,1,45,NaN,clock,boat,NaN,boat4.png
mlp_mixer,1,46,NaN,chair,boat,NaN,boat5.png
mlp_mixer,1,47,NaN,knife,boat,NaN,boat6.png
mlp_mixer,1,48,NaN,bicycle,boat,NaN,boat7.png
mlp_mixer,1,49,NaN,knife,boat,NaN,boat8.png
mlp_mixer,1,50,NaN,clock,boat,NaN,boat9.png
mlp_mixer,1,51,NaN,clock,bottle,NaN,bottle1.png
mlp_mixer,1,52,NaN,bottle,bottle,NaN,bottle10.png
mlp_mixer,1,53,NaN,clock,bottle,NaN,bottle2.png
mlp_mixer,1,54,NaN,clock,bottle,NaN,bottle3.png
mlp_mixer,1,55,NaN,clock,bottle,NaN,bottle4.png
mlp_mixer,1,56,NaN,clock,bottle,NaN,bottle5.png
mlp_mixer,1,57,NaN,clock,bottle,NaN,bottle6.png
mlp_mixer,1,58,NaN,chair,bottle,NaN,bottle7.png
mlp_mixer,1,59,NaN,clock,bottle,NaN,bottle8.png
mlp_mixer,1,60,NaN,clock,bottle,NaN,bottle9.png
mlp_mixer,1,61,NaN,chair,car,NaN,car1.png
mlp_mixer,1,62,NaN,clock,car,NaN,car10.png
mlp_mixer,1,63,NaN,clock,car,NaN,car2.png
mlp_mixer,1,64,NaN,clock,car,NaN,car3.png
mlp_mixer,1,65,NaN,clock,car,NaN,car4.png
mlp_mixer,1,66,NaN,bird,car,NaN,car5.png
mlp_mixer,1,67,NaN,car,car,NaN,car6.png
mlp_mixer,1,68,NaN,clock,car,NaN,car7.png
mlp_mixer,1,69,NaN,knife,car,NaN,car8.png
mlp_mixer,1,70,NaN,clock,car,NaN,car9.png
mlp_mixer,1,71,NaN,oven,cat,NaN,cat1.png
mlp_mixer,1,72,NaN,clock,cat,NaN,cat10.png
mlp_mixer,1,73,NaN,clock,cat,NaN,cat2.png
mlp_mixer,1,74,NaN,clock,cat,NaN,cat3.png
mlp_mixer,1,75,NaN,clock,cat,NaN,cat4.png
mlp_mixer,1,76,NaN,oven,cat,NaN,cat5.png
mlp_mixer,1,77,NaN,chair,cat,NaN,cat6.png
mlp_mixer,1,78,NaN,oven,cat,NaN,cat7.png
mlp_mixer,1,79,NaN,clock,cat,NaN,cat8.png
mlp_mixer,1,80,NaN,knife,cat,NaN,cat9.png
mlp_mixer,1,81,NaN,clock,chair,NaN,chair1.png
mlp_mixer,1,82,NaN,chair,chair,NaN,chair10.png
mlp_mixer,1,83,NaN,chair,chair,NaN,chair2.png
mlp_mixer,1,84,NaN,chair,chair,NaN,chair3.png
mlp_mixer,1,85,NaN,chair,chair,NaN,chair4.png
mlp_mixer,1,86,NaN,clock,chair,NaN,chair5.png
mlp_mixer,1,87,NaN,clock,chair,NaN,chair6.png
mlp_mixer,1,88,NaN,chair,chair,NaN,chair7.png
mlp_mixer,1,89,NaN,clock,chair,NaN,chair8.png
mlp_mixer,1,90,NaN,clock,chair,NaN,chair9.png
mlp_mixer,1,91,NaN,bicycle,clock,NaN,clock1.png
mlp_mixer,1,92,NaN,clock,clock,NaN,clock10.png
mlp_mixer,1,93,NaN,clock,clock,NaN,clock2.png
mlp_mixer,1,94,NaN,chair,clock,NaN,clock3.png
mlp_mixer,1,95,NaN,clock,clock,NaN,clock4.png
mlp_mixer,1,96,NaN,clock,clock,NaN,clock5.png
mlp_mixer,1,97,NaN,clock,clock,NaN,clock6.png
mlp_mixer,1,98,NaN,clock,clock,NaN,clock7.png
mlp_mixer,1,99,NaN,clock,clock,NaN,clock8.png
mlp_mixer,1,100,NaN,clock,clock,NaN,clock9.png
mlp_mixer,1,101,NaN,clock,dog,NaN,dog1.png
mlp_mixer,1,102,NaN,clock,dog,NaN,dog10.png
mlp_mixer,1,103,NaN,clock,dog,NaN,dog2.png
mlp_mixer,1,104,NaN,clock,dog,NaN,dog3.png
mlp_mixer,1,105,NaN,chair,dog,NaN,dog4.png
mlp_mixer,1,106,NaN,clock,dog,NaN,dog5.png
mlp_mixer,1,107,NaN,bear,dog,NaN,dog6.png
mlp_mixer,1,108,NaN,knife,dog,NaN,dog7.png
mlp_mixer,1,109,NaN,clock,dog,NaN,dog8.png
mlp_mixer,1,110,NaN,clock,dog,NaN,dog9.png
mlp_mixer,1,111,NaN,clock,elephant,NaN,elephant1.png
mlp_mixer,1,112,NaN,chair,elephant,NaN,elephant10.png
mlp_mixer,1,113,NaN,clock,elephant,NaN,elephant2.png
mlp_mixer,1,114,NaN,clock,elephant,NaN,elephant3.png
mlp_mixer,1,115,NaN,oven,elephant,NaN,elephant4.png
mlp_mixer,1,116,NaN,chair,elephant,NaN,elephant5.png
mlp_mixer,1,117,NaN,keyboard,elephant,NaN,elephant6.png
mlp_mixer,1,118,NaN,clock,elephant,NaN,elephant7.png
mlp_mixer,1,119,NaN,clock,elephant,NaN,elephant8.png
mlp_mixer,1,120,NaN,clock,elephant,NaN,elephant9.png
mlp_mixer,1,121,NaN,bear,keyboard,NaN,keyboard1.png
mlp_mixer,1,122,NaN,bicycle,keyboard,NaN,keyboard10.png
mlp_mixer,1,123,NaN,chair,keyboard,NaN,keyboard2.png
mlp_mixer,1,124,NaN,cat,keyboard,NaN,keyboard3.png
mlp_mixer,1,125,NaN,cat,keyboard,NaN,keyboard4.png
mlp_mixer,1,126,NaN,chair,keyboard,NaN,keyboard5.png
mlp_mixer,1,127,NaN,clock,keyboard,NaN,keyboard6.png
mlp_mixer,1,128,NaN,chair,keyboard,NaN,keyboard7.png
mlp_mixer,1,129,NaN,cat,keyboard,NaN,keyboard8.png
mlp_mixer,1,130,NaN,clock,keyboard,NaN,keyboard9.png
mlp_mixer,1,131,NaN,knife,knife,NaN,knife1.png
mlp_mixer,1,132,NaN,clock,knife,NaN,knife10.png
mlp_mixer,1,133,NaN,clock,knife,NaN,knife2.png
mlp_mixer,1,134,NaN,knife,knife,NaN,knife3.png
mlp_mixer,1,135,NaN,cat,knife,NaN,knife4.png
mlp_mixer,1,136,NaN,knife,knife,NaN,knife5.png
mlp_mixer,1,137,NaN,clock,knife,NaN,knife6.png
mlp_mixer,1,138,NaN,clock,knife,NaN,knife7.png
mlp_mixer,1,139,NaN,chair,knife,NaN,knife8.png
mlp_mixer,1,140,NaN,clock,knife,NaN,knife9.png
mlp_mixer,1,141,NaN,knife,oven,NaN,oven1.png
mlp_mixer,1,142,NaN,chair,oven,NaN,oven10.png
mlp_mixer,1,143,NaN,oven,oven,NaN,oven2.png
mlp_mixer,1,144,NaN,clock,oven,NaN,oven3.png
mlp_mixer,1,145,NaN,chair,oven,NaN,oven4.png
mlp_mixer,1,146,NaN,clock,oven,NaN,oven5.png
mlp_mixer,1,147,NaN,clock,oven,NaN,oven6.png
mlp_mixer,1,148,NaN,clock,oven,NaN,oven7.png
mlp_mixer,1,149,NaN,clock,oven,NaN,oven8.png
mlp_mixer,1,150,NaN,knife,oven,NaN,oven9.png
mlp_mixer,1,151,NaN,clock,truck,NaN,truck1.png
mlp_mixer,1,152,NaN,knife,truck,NaN,truck10.png
mlp_mixer,1,153,NaN,clock,truck,NaN,truck2.png
mlp_mixer,1,154,NaN,clock,truck,NaN,truck3.png
mlp_mixer,1,155,NaN,clock,truck,NaN,truck4.png
mlp_mixer,1,156,NaN,clock,truck,NaN,truck5.png
mlp_mixer,1,157,NaN,clock,truck,NaN,truck6.png
mlp_mixer,1,158,NaN,clock,truck,NaN,truck7.png
mlp_mixer,1,159,NaN,chair,truck,NaN,truck8.png
mlp_mixer,1,160,NaN,clock,truck,NaN,truck9.png
