subj,session,trial,rt,object_response,category,condition,imagename
mlp_mixer_b_in21,1,1,NaN,truck,chair,40,0001_lp_dnn_40_chair_10_n04099969_7577.png
mlp_mixer_b_in21,1,2,NaN,oven,cat,40,0002_lp_dnn_40_cat_10_n02124075_12815.png
mlp_mixer_b_in21,1,3,NaN,dog,truck,5,0003_lp_dnn_5_truck_10_n04467665_34253.png
mlp_mixer_b_in21,1,4,NaN,bird,clock,1,0004_lp_dnn_1_clock_10_n04548280_5320.png
mlp_mixer_b_in21,1,5,NaN,dog,dog,3,0005_lp_dnn_3_dog_10_n02108915_3652.png
mlp_mixer_b_in21,1,6,NaN,cat,keyboard,7,0006_lp_dnn_7_keyboard_10_n04505470_578.png
mlp_mixer_b_in21,1,7,NaN,dog,cat,7,0007_lp_dnn_7_cat_10_n02123597_3842.png
mlp_mixer_b_in21,1,8,NaN,dog,bear,1,0008_lp_dnn_1_bear_10_n02134418_14.png
mlp_mixer_b_in21,1,9,NaN,cat,knife,10,0009_lp_dnn_10_knife_10_n03041632_29920.png
mlp_mixer_b_in21,1,10,NaN,truck,bird,5,0010_lp_dnn_5_bird_10_n01795545_952.png
mlp_mixer_b_in21,1,11,NaN,dog,bear,3,0011_lp_dnn_3_bear_10_n02132136_6441.png
mlp_mixer_b_in21,1,12,NaN,bird,bird,3,0012_lp_dnn_3_bird_10_n01829413_8792.png
mlp_mixer_b_in21,1,13,NaN,car,keyboard,7,0013_lp_dnn_7_keyboard_10_n04505470_4458.png
mlp_mixer_b_in21,1,14,NaN,cat,chair,10,0014_lp_dnn_10_chair_10_n03376595_9176.png
mlp_mixer_b_in21,1,15,NaN,truck,clock,40,0015_lp_dnn_40_clock_10_n04548280_7662.png
mlp_mixer_b_in21,1,16,NaN,truck,keyboard,40,0016_lp_dnn_40_keyboard_10_n03085013_25809.png
mlp_mixer_b_in21,1,17,NaN,bird,oven,5,0017_lp_dnn_5_oven_10_n04111531_1580.png
mlp_mixer_b_in21,1,18,NaN,dog,elephant,1,0018_lp_dnn_1_elephant_10_n02504458_900.png
mlp_mixer_b_in21,1,19,NaN,car,dog,7,0019_lp_dnn_7_dog_10_n02106662_2384.png
mlp_mixer_b_in21,1,20,NaN,truck,truck,10,0020_lp_dnn_10_truck_10_n03796401_22618.png
mlp_mixer_b_in21,1,21,NaN,bottle,elephant,15,0021_lp_dnn_15_elephant_10_n02504013_5463.png
mlp_mixer_b_in21,1,22,NaN,truck,chair,10,0022_lp_dnn_10_chair_10_n04429376_16459.png
mlp_mixer_b_in21,1,23,NaN,dog,cat,1,0023_lp_dnn_1_cat_10_n02123045_12206.png
mlp_mixer_b_in21,1,24,NaN,bird,truck,7,0024_lp_dnn_7_truck_10_n03417042_2633.png
mlp_mixer_b_in21,1,25,NaN,truck,keyboard,15,0025_lp_dnn_15_keyboard_10_n03085013_24416.png
mlp_mixer_b_in21,1,26,NaN,truck,car,7,0026_lp_dnn_7_car_10_n02814533_44503.png
mlp_mixer_b_in21,1,27,NaN,bird,elephant,5,0027_lp_dnn_5_elephant_10_n02504458_5797.png
mlp_mixer_b_in21,1,28,NaN,keyboard,chair,0,0028_lp_dnn_0_chair_10_n04429376_8237.png
mlp_mixer_b_in21,1,29,NaN,truck,cat,7,0029_lp_dnn_7_cat_10_n02123159_587.png
mlp_mixer_b_in21,1,30,NaN,bottle,bird,10,0030_lp_dnn_10_bird_10_n02028035_17238.png
mlp_mixer_b_in21,1,31,NaN,truck,cat,40,0031_lp_dnn_40_cat_10_n02123159_4348.png
mlp_mixer_b_in21,1,32,NaN,bird,boat,5,0032_lp_dnn_5_boat_10_n04273569_22332.png
mlp_mixer_b_in21,1,33,NaN,dog,elephant,1,0033_lp_dnn_1_elephant_10_n02504013_1244.png
mlp_mixer_b_in21,1,34,NaN,dog,bicycle,7,0034_lp_dnn_7_bicycle_10_n03792782_30229.png
mlp_mixer_b_in21,1,35,NaN,car,keyboard,10,0035_lp_dnn_10_keyboard_10_n03085013_7573.png
mlp_mixer_b_in21,1,36,NaN,bird,keyboard,3,0036_lp_dnn_3_keyboard_10_n03085013_24578.png
mlp_mixer_b_in21,1,37,NaN,truck,truck,15,0037_lp_dnn_15_truck_10_n03417042_1336.png
mlp_mixer_b_in21,1,38,NaN,bird,knife,3,0038_lp_dnn_3_knife_10_n03041632_7495.png
mlp_mixer_b_in21,1,39,NaN,bird,car,0,0039_lp_dnn_0_car_10_n03100240_9625.png
mlp_mixer_b_in21,1,40,NaN,truck,elephant,10,0040_lp_dnn_10_elephant_10_n02504458_6107.png
mlp_mixer_b_in21,1,41,NaN,bird,bicycle,0,0041_lp_dnn_0_bicycle_10_n03792782_33649.png
mlp_mixer_b_in21,1,42,NaN,bottle,clock,1,0042_lp_dnn_1_clock_10_n03196217_8282.png
mlp_mixer_b_in21,1,43,NaN,car,keyboard,7,0043_lp_dnn_7_keyboard_10_n03085013_21534.png
mlp_mixer_b_in21,1,44,NaN,bird,elephant,15,0044_lp_dnn_15_elephant_10_n02504013_22813.png
mlp_mixer_b_in21,1,45,NaN,truck,truck,10,0045_lp_dnn_10_truck_10_n03796401_16425.png
mlp_mixer_b_in21,1,46,NaN,truck,airplane,15,0046_lp_dnn_15_airplane_10_n02690373_9427.png
mlp_mixer_b_in21,1,47,NaN,car,bird,7,0047_lp_dnn_7_bird_10_n02009912_11907.png
mlp_mixer_b_in21,1,48,NaN,bird,airplane,1,0048_lp_dnn_1_airplane_10_n02690373_5773.png
mlp_mixer_b_in21,1,49,NaN,keyboard,chair,40,0049_lp_dnn_40_chair_10_n02791124_2972.png
mlp_mixer_b_in21,1,50,NaN,bird,bird,1,0050_lp_dnn_1_bird_10_n01819313_18188.png
mlp_mixer_b_in21,1,51,NaN,bird,car,5,0051_lp_dnn_5_car_10_n04285008_7428.png
mlp_mixer_b_in21,1,52,NaN,truck,bottle,7,0052_lp_dnn_7_bottle_10_n04591713_6923.png
mlp_mixer_b_in21,1,53,NaN,chair,knife,0,0053_lp_dnn_0_knife_10_n03041632_22570.png
mlp_mixer_b_in21,1,54,NaN,dog,bear,0,0054_lp_dnn_0_bear_10_n02132136_7586.png
mlp_mixer_b_in21,1,55,NaN,bird,clock,5,0055_lp_dnn_5_clock_10_n04548280_9144.png
mlp_mixer_b_in21,1,56,NaN,car,bottle,0,0056_lp_dnn_0_bottle_10_n04591713_2680.png
mlp_mixer_b_in21,1,57,NaN,cat,cat,3,0057_lp_dnn_3_cat_10_n02123045_1596.png
mlp_mixer_b_in21,1,58,NaN,truck,cat,10,0058_lp_dnn_10_cat_10_n02123597_19450.png
mlp_mixer_b_in21,1,59,NaN,truck,chair,15,0059_lp_dnn_15_chair_10_n03376595_3462.png
mlp_mixer_b_in21,1,60,NaN,bird,bottle,3,0060_lp_dnn_3_bottle_10_n04591713_3683.png
mlp_mixer_b_in21,1,61,NaN,truck,clock,7,0061_lp_dnn_7_clock_10_n03196217_4309.png
mlp_mixer_b_in21,1,62,NaN,cat,bear,15,0062_lp_dnn_15_bear_10_n02134084_4923.png
mlp_mixer_b_in21,1,63,NaN,dog,chair,1,0063_lp_dnn_1_chair_10_n04429376_5238.png
mlp_mixer_b_in21,1,64,NaN,chair,clock,0,0064_lp_dnn_0_clock_10_n03196217_2414.png
mlp_mixer_b_in21,1,65,NaN,clock,bird,3,0065_lp_dnn_3_bird_10_n01797886_2711.png
mlp_mixer_b_in21,1,66,NaN,truck,truck,15,0066_lp_dnn_15_truck_10_n04467665_68463.png
mlp_mixer_b_in21,1,67,NaN,dog,truck,0,0067_lp_dnn_0_truck_10_n03417042_10099.png
mlp_mixer_b_in21,1,68,NaN,truck,bear,10,0068_lp_dnn_10_bear_10_n02134418_3793.png
mlp_mixer_b_in21,1,69,NaN,cat,bottle,10,0069_lp_dnn_10_bottle_10_n03937543_9524.png
mlp_mixer_b_in21,1,70,NaN,dog,cat,3,0070_lp_dnn_3_cat_10_n02123394_1038.png
mlp_mixer_b_in21,1,71,NaN,bird,dog,5,0071_lp_dnn_5_dog_10_n02110185_7886.png
mlp_mixer_b_in21,1,72,NaN,cat,clock,3,0072_lp_dnn_3_clock_10_n02708093_4912.png
mlp_mixer_b_in21,1,73,NaN,dog,dog,15,0073_lp_dnn_15_dog_10_n02108422_932.png
mlp_mixer_b_in21,1,74,NaN,bird,truck,0,0074_lp_dnn_0_truck_10_n04467665_18621.png
mlp_mixer_b_in21,1,75,NaN,bird,truck,1,0075_lp_dnn_1_truck_10_n04467665_50932.png
mlp_mixer_b_in21,1,76,NaN,bird,dog,1,0076_lp_dnn_1_dog_10_n02102480_7293.png
mlp_mixer_b_in21,1,77,NaN,bird,bottle,1,0077_lp_dnn_1_bottle_10_n04591713_4764.png
mlp_mixer_b_in21,1,78,NaN,oven,clock,15,0078_lp_dnn_15_clock_10_n02708093_274.png
mlp_mixer_b_in21,1,79,NaN,bird,bottle,5,0079_lp_dnn_5_bottle_10_n04557648_29772.png
mlp_mixer_b_in21,1,80,NaN,oven,car,15,0080_lp_dnn_15_car_10_n03100240_22499.png
mlp_mixer_b_in21,1,81,NaN,chair,clock,3,0081_lp_dnn_3_clock_10_n02708093_6252.png
mlp_mixer_b_in21,1,82,NaN,elephant,airplane,10,0082_lp_dnn_10_airplane_10_n02690373_5427.png
mlp_mixer_b_in21,1,83,NaN,truck,dog,15,0083_lp_dnn_15_dog_10_n02107142_46045.png
mlp_mixer_b_in21,1,84,NaN,oven,keyboard,40,0084_lp_dnn_40_keyboard_10_n03085013_23793.png
mlp_mixer_b_in21,1,85,NaN,bird,bicycle,3,0085_lp_dnn_3_bicycle_10_n03792782_12421.png
mlp_mixer_b_in21,1,86,NaN,truck,airplane,0,0086_lp_dnn_0_airplane_10_n02690373_1310.png
mlp_mixer_b_in21,1,87,NaN,dog,oven,15,0087_lp_dnn_15_oven_10_n04111531_8793.png
mlp_mixer_b_in21,1,88,NaN,truck,airplane,5,0088_lp_dnn_5_airplane_10_n02690373_633.png
mlp_mixer_b_in21,1,89,NaN,truck,clock,5,0089_lp_dnn_5_clock_10_n02708093_2307.png
mlp_mixer_b_in21,1,90,NaN,cat,oven,10,0090_lp_dnn_10_oven_10_n04111531_13795.png
mlp_mixer_b_in21,1,91,NaN,bird,boat,3,0091_lp_dnn_3_boat_10_n03662601_1427.png
mlp_mixer_b_in21,1,92,NaN,bird,boat,5,0092_lp_dnn_5_boat_10_n04612504_15944.png
mlp_mixer_b_in21,1,93,NaN,oven,airplane,40,0093_lp_dnn_40_airplane_10_n02690373_3561.png
mlp_mixer_b_in21,1,94,NaN,dog,elephant,7,0094_lp_dnn_7_elephant_10_n02504458_1848.png
mlp_mixer_b_in21,1,95,NaN,dog,oven,5,0095_lp_dnn_5_oven_10_n04111531_4155.png
mlp_mixer_b_in21,1,96,NaN,bird,car,0,0096_lp_dnn_0_car_10_n03100240_8327.png
mlp_mixer_b_in21,1,97,NaN,bird,chair,0,0097_lp_dnn_0_chair_10_n04429376_24319.png
mlp_mixer_b_in21,1,98,NaN,bird,chair,3,0098_lp_dnn_3_chair_10_n03376595_5112.png
mlp_mixer_b_in21,1,99,NaN,chair,cat,1,0099_lp_dnn_1_cat_10_n02124075_2268.png
mlp_mixer_b_in21,1,100,NaN,bird,boat,3,0100_lp_dnn_3_boat_10_n04273569_1137.png
mlp_mixer_b_in21,1,101,NaN,car,chair,1,0101_lp_dnn_1_chair_10_n02791124_15383.png
mlp_mixer_b_in21,1,102,NaN,truck,clock,15,0102_lp_dnn_15_clock_10_n04548280_8998.png
mlp_mixer_b_in21,1,103,NaN,dog,dog,0,0103_lp_dnn_0_dog_10_n02097047_2800.png
mlp_mixer_b_in21,1,104,NaN,cat,bicycle,15,0104_lp_dnn_15_bicycle_10_n03792782_18294.png
mlp_mixer_b_in21,1,105,NaN,dog,elephant,0,0105_lp_dnn_0_elephant_10_n02504013_24486.png
mlp_mixer_b_in21,1,106,NaN,truck,airplane,7,0106_lp_dnn_7_airplane_10_n02690373_2923.png
mlp_mixer_b_in21,1,107,NaN,boat,airplane,3,0107_lp_dnn_3_airplane_10_n02690373_15392.png
mlp_mixer_b_in21,1,108,NaN,bird,oven,5,0108_lp_dnn_5_oven_10_n04111531_6080.png
mlp_mixer_b_in21,1,109,NaN,cat,bear,15,0109_lp_dnn_15_bear_10_n02134084_22736.png
mlp_mixer_b_in21,1,110,NaN,bird,knife,1,0110_lp_dnn_1_knife_10_n03041632_33326.png
mlp_mixer_b_in21,1,111,NaN,dog,truck,40,0111_lp_dnn_40_truck_10_n04467665_66876.png
mlp_mixer_b_in21,1,112,NaN,oven,truck,40,0112_lp_dnn_40_truck_10_n03796401_10234.png
mlp_mixer_b_in21,1,113,NaN,bird,bicycle,7,0113_lp_dnn_7_bicycle_10_n03792782_5416.png
mlp_mixer_b_in21,1,114,NaN,dog,knife,7,0114_lp_dnn_7_knife_10_n03041632_25772.png
mlp_mixer_b_in21,1,115,NaN,clock,bicycle,10,0115_lp_dnn_10_bicycle_10_n03792782_7108.png
mlp_mixer_b_in21,1,116,NaN,bird,chair,0,0116_lp_dnn_0_chair_10_n03376595_1981.png
mlp_mixer_b_in21,1,117,NaN,truck,oven,15,0117_lp_dnn_15_oven_10_n04111531_6508.png
mlp_mixer_b_in21,1,118,NaN,car,bird,15,0118_lp_dnn_15_bird_10_n01843383_2843.png
mlp_mixer_b_in21,1,119,NaN,dog,cat,5,0119_lp_dnn_5_cat_10_n02123597_5887.png
mlp_mixer_b_in21,1,120,NaN,chair,clock,40,0120_lp_dnn_40_clock_10_n04548280_9801.png
mlp_mixer_b_in21,1,121,NaN,bottle,bird,1,0121_lp_dnn_1_bird_10_n01530575_10332.png
mlp_mixer_b_in21,1,122,NaN,truck,elephant,15,0122_lp_dnn_15_elephant_10_n02504013_5887.png
mlp_mixer_b_in21,1,123,NaN,keyboard,cat,3,0123_lp_dnn_3_cat_10_n02124075_8693.png
mlp_mixer_b_in21,1,124,NaN,truck,boat,15,0124_lp_dnn_15_boat_10_n04612504_26151.png
mlp_mixer_b_in21,1,125,NaN,bird,cat,7,0125_lp_dnn_7_cat_10_n02125311_53412.png
mlp_mixer_b_in21,1,126,NaN,truck,knife,7,0126_lp_dnn_7_knife_10_n03041632_46914.png
mlp_mixer_b_in21,1,127,NaN,oven,bicycle,15,0127_lp_dnn_15_bicycle_10_n03792782_5629.png
mlp_mixer_b_in21,1,128,NaN,car,bottle,40,0128_lp_dnn_40_bottle_10_n02823428_79.png
mlp_mixer_b_in21,1,129,NaN,bird,dog,3,0129_lp_dnn_3_dog_10_n02101006_5024.png
mlp_mixer_b_in21,1,130,NaN,dog,oven,15,0130_lp_dnn_15_oven_10_n04111531_2350.png
mlp_mixer_b_in21,1,131,NaN,bird,airplane,7,0131_lp_dnn_7_airplane_10_n02690373_4839.png
mlp_mixer_b_in21,1,132,NaN,bird,car,5,0132_lp_dnn_5_car_10_n03100240_2075.png
mlp_mixer_b_in21,1,133,NaN,bird,cat,5,0133_lp_dnn_5_cat_10_n02123159_3729.png
mlp_mixer_b_in21,1,134,NaN,truck,knife,10,0134_lp_dnn_10_knife_10_n03041632_3079.png
mlp_mixer_b_in21,1,135,NaN,cat,elephant,15,0135_lp_dnn_15_elephant_10_n02504013_2052.png
mlp_mixer_b_in21,1,136,NaN,truck,cat,40,0136_lp_dnn_40_cat_10_n02123159_3724.png
mlp_mixer_b_in21,1,137,NaN,car,keyboard,15,0137_lp_dnn_15_keyboard_10_n03085013_7955.png
mlp_mixer_b_in21,1,138,NaN,truck,bird,40,0138_lp_dnn_40_bird_10_n02056570_9872.png
mlp_mixer_b_in21,1,139,NaN,clock,cat,10,0139_lp_dnn_10_cat_10_n02125311_44401.png
mlp_mixer_b_in21,1,140,NaN,truck,airplane,10,0140_lp_dnn_10_airplane_10_n02690373_10657.png
mlp_mixer_b_in21,1,141,NaN,dog,bird,5,0141_lp_dnn_5_bird_10_n02025239_7919.png
mlp_mixer_b_in21,1,142,NaN,truck,bear,40,0142_lp_dnn_40_bear_10_n02134084_23165.png
mlp_mixer_b_in21,1,143,NaN,oven,knife,40,0143_lp_dnn_40_knife_10_n03041632_28658.png
mlp_mixer_b_in21,1,144,NaN,bird,keyboard,5,0144_lp_dnn_5_keyboard_10_n04505470_4371.png
mlp_mixer_b_in21,1,145,NaN,truck,keyboard,0,0145_lp_dnn_0_keyboard_10_n03085013_14237.png
mlp_mixer_b_in21,1,146,NaN,truck,clock,0,0146_lp_dnn_0_clock_10_n03196217_6163.png
mlp_mixer_b_in21,1,147,NaN,cat,chair,15,0147_lp_dnn_15_chair_10_n02791124_3857.png
mlp_mixer_b_in21,1,148,NaN,dog,truck,40,0148_lp_dnn_40_truck_10_n03417042_20650.png
mlp_mixer_b_in21,1,149,NaN,car,truck,0,0149_lp_dnn_0_truck_10_n04467665_17101.png
mlp_mixer_b_in21,1,150,NaN,bird,chair,1,0150_lp_dnn_1_chair_10_n04429376_19354.png
mlp_mixer_b_in21,1,151,NaN,car,knife,0,0151_lp_dnn_0_knife_10_n03041632_42156.png
mlp_mixer_b_in21,1,152,NaN,bird,car,1,0152_lp_dnn_1_car_10_n04285008_39.png
mlp_mixer_b_in21,1,153,NaN,bird,boat,1,0153_lp_dnn_1_boat_10_n03662601_1319.png
mlp_mixer_b_in21,1,154,NaN,bird,truck,7,0154_lp_dnn_7_truck_10_n03796401_4119.png
mlp_mixer_b_in21,1,155,NaN,car,bottle,15,0155_lp_dnn_15_bottle_10_n03937543_2333.png
mlp_mixer_b_in21,1,156,NaN,chair,bottle,3,0156_lp_dnn_3_bottle_10_n04591713_7134.png
mlp_mixer_b_in21,1,157,NaN,bird,dog,0,0157_lp_dnn_0_dog_10_n02107312_3673.png
mlp_mixer_b_in21,1,158,NaN,bird,oven,3,0158_lp_dnn_3_oven_10_n04111531_8373.png
mlp_mixer_b_in21,1,159,NaN,bird,car,3,0159_lp_dnn_3_car_10_n03100240_13707.png
mlp_mixer_b_in21,1,160,NaN,bird,chair,1,0160_lp_dnn_1_chair_10_n02791124_241.png
mlp_mixer_b_in21,1,161,NaN,car,airplane,7,0161_lp_dnn_7_airplane_10_n02690373_5628.png
mlp_mixer_b_in21,1,162,NaN,dog,boat,40,0162_lp_dnn_40_boat_10_n02951358_1461.png
mlp_mixer_b_in21,1,163,NaN,bird,keyboard,7,0163_lp_dnn_7_keyboard_10_n04505470_4501.png
mlp_mixer_b_in21,1,164,NaN,car,bird,1,0164_lp_dnn_1_bird_10_n02033041_11415.png
mlp_mixer_b_in21,1,165,NaN,bicycle,knife,1,0165_lp_dnn_1_knife_10_n03041632_6446.png
mlp_mixer_b_in21,1,166,NaN,dog,bird,0,0166_lp_dnn_0_bird_10_n02011460_3892.png
mlp_mixer_b_in21,1,167,NaN,dog,cat,1,0167_lp_dnn_1_cat_10_n02125311_3174.png
mlp_mixer_b_in21,1,168,NaN,truck,dog,10,0168_lp_dnn_10_dog_10_n02088364_7448.png
mlp_mixer_b_in21,1,169,NaN,dog,cat,1,0169_lp_dnn_1_cat_10_n02123394_4299.png
mlp_mixer_b_in21,1,170,NaN,cat,keyboard,15,0170_lp_dnn_15_keyboard_10_n03085013_23731.png
mlp_mixer_b_in21,1,171,NaN,bird,knife,5,0171_lp_dnn_5_knife_10_n03041632_29285.png
mlp_mixer_b_in21,1,172,NaN,chair,keyboard,0,0172_lp_dnn_0_keyboard_10_n03085013_12164.png
mlp_mixer_b_in21,1,173,NaN,car,bird,5,0173_lp_dnn_5_bird_10_n01582220_9023.png
mlp_mixer_b_in21,1,174,NaN,bird,bottle,3,0174_lp_dnn_3_bottle_10_n03983396_12728.png
mlp_mixer_b_in21,1,175,NaN,truck,dog,7,0175_lp_dnn_7_dog_10_n02111277_50807.png
mlp_mixer_b_in21,1,176,NaN,dog,boat,5,0176_lp_dnn_5_boat_10_n04273569_2037.png
mlp_mixer_b_in21,1,177,NaN,truck,keyboard,40,0177_lp_dnn_40_keyboard_10_n04505470_4672.png
mlp_mixer_b_in21,1,178,NaN,elephant,boat,10,0178_lp_dnn_10_boat_10_n03662601_12034.png
mlp_mixer_b_in21,1,179,NaN,elephant,airplane,15,0179_lp_dnn_15_airplane_10_n02690373_5845.png
mlp_mixer_b_in21,1,180,NaN,truck,truck,5,0180_lp_dnn_5_truck_10_n03417042_12128.png
mlp_mixer_b_in21,1,181,NaN,truck,keyboard,10,0181_lp_dnn_10_keyboard_10_n03085013_2432.png
mlp_mixer_b_in21,1,182,NaN,car,chair,5,0182_lp_dnn_5_chair_10_n03376595_9692.png
mlp_mixer_b_in21,1,183,NaN,bird,chair,3,0183_lp_dnn_3_chair_10_n03376595_12583.png
mlp_mixer_b_in21,1,184,NaN,truck,bear,0,0184_lp_dnn_0_bear_10_n02133161_2135.png
mlp_mixer_b_in21,1,185,NaN,truck,airplane,10,0185_lp_dnn_10_airplane_10_n02690373_5176.png
mlp_mixer_b_in21,1,186,NaN,dog,elephant,0,0186_lp_dnn_0_elephant_10_n02504013_10990.png
mlp_mixer_b_in21,1,187,NaN,clock,boat,10,0187_lp_dnn_10_boat_10_n02951358_3155.png
mlp_mixer_b_in21,1,188,NaN,car,knife,1,0188_lp_dnn_1_knife_10_n03041632_2644.png
mlp_mixer_b_in21,1,189,NaN,car,airplane,5,0189_lp_dnn_5_airplane_10_n02690373_5184.png
mlp_mixer_b_in21,1,190,NaN,oven,chair,0,0190_lp_dnn_0_chair_10_n04099969_16161.png
mlp_mixer_b_in21,1,191,NaN,truck,boat,10,0191_lp_dnn_10_boat_10_n03344393_5343.png
mlp_mixer_b_in21,1,192,NaN,bird,oven,0,0192_lp_dnn_0_oven_10_n04111531_15052.png
mlp_mixer_b_in21,1,193,NaN,dog,bicycle,15,0193_lp_dnn_15_bicycle_10_n02835271_317.png
mlp_mixer_b_in21,1,194,NaN,chair,bird,0,0194_lp_dnn_0_bird_10_n02002556_15721.png
mlp_mixer_b_in21,1,195,NaN,cat,chair,5,0195_lp_dnn_5_chair_10_n03376595_11280.png
mlp_mixer_b_in21,1,196,NaN,bird,keyboard,3,0196_lp_dnn_3_keyboard_10_n04505470_4621.png
mlp_mixer_b_in21,1,197,NaN,truck,boat,7,0197_lp_dnn_7_boat_10_n03662601_6042.png
mlp_mixer_b_in21,1,198,NaN,bird,dog,1,0198_lp_dnn_1_dog_10_n02086646_2810.png
mlp_mixer_b_in21,1,199,NaN,truck,elephant,15,0199_lp_dnn_15_elephant_10_n02504458_7835.png
mlp_mixer_b_in21,1,200,NaN,car,cat,15,0200_lp_dnn_15_cat_10_n02123159_6281.png
mlp_mixer_b_in21,1,201,NaN,car,knife,5,0201_lp_dnn_5_knife_10_n03041632_1661.png
mlp_mixer_b_in21,1,202,NaN,bird,clock,1,0202_lp_dnn_1_clock_10_n02708093_2806.png
mlp_mixer_b_in21,1,203,NaN,bird,boat,1,0203_lp_dnn_1_boat_10_n04273569_1201.png
mlp_mixer_b_in21,1,204,NaN,truck,bird,40,0204_lp_dnn_40_bird_10_n01614925_13283.png
mlp_mixer_b_in21,1,205,NaN,dog,car,40,0205_lp_dnn_40_car_10_n02814533_51701.png
mlp_mixer_b_in21,1,206,NaN,cat,chair,7,0206_lp_dnn_7_chair_10_n04099969_34325.png
mlp_mixer_b_in21,1,207,NaN,bird,truck,0,0207_lp_dnn_0_truck_10_n04467665_71305.png
mlp_mixer_b_in21,1,208,NaN,truck,boat,5,0208_lp_dnn_5_boat_10_n03344393_5916.png
mlp_mixer_b_in21,1,209,NaN,bird,car,7,0209_lp_dnn_7_car_10_n02814533_28783.png
mlp_mixer_b_in21,1,210,NaN,truck,boat,15,0210_lp_dnn_15_boat_10_n03662601_16825.png
mlp_mixer_b_in21,1,211,NaN,bird,dog,0,0211_lp_dnn_0_dog_10_n02100583_10960.png
mlp_mixer_b_in21,1,212,NaN,truck,elephant,10,0212_lp_dnn_10_elephant_10_n02504458_4587.png
mlp_mixer_b_in21,1,213,NaN,cat,bottle,10,0213_lp_dnn_10_bottle_10_n03983396_12670.png
mlp_mixer_b_in21,1,214,NaN,bird,bicycle,3,0214_lp_dnn_3_bicycle_10_n02835271_18205.png
mlp_mixer_b_in21,1,215,NaN,oven,truck,40,0215_lp_dnn_40_truck_10_n04467665_67527.png
mlp_mixer_b_in21,1,216,NaN,truck,keyboard,10,0216_lp_dnn_10_keyboard_10_n03085013_4374.png
mlp_mixer_b_in21,1,217,NaN,bird,clock,3,0217_lp_dnn_3_clock_10_n03196217_3086.png
mlp_mixer_b_in21,1,218,NaN,cat,clock,15,0218_lp_dnn_15_clock_10_n04548280_254.png
mlp_mixer_b_in21,1,219,NaN,cat,bicycle,15,0219_lp_dnn_15_bicycle_10_n02835271_21707.png
mlp_mixer_b_in21,1,220,NaN,cat,bird,15,0220_lp_dnn_15_bird_10_n01819313_6340.png
mlp_mixer_b_in21,1,221,NaN,bird,bicycle,5,0221_lp_dnn_5_bicycle_10_n02835271_10556.png
mlp_mixer_b_in21,1,222,NaN,truck,chair,15,0222_lp_dnn_15_chair_10_n04099969_3312.png
mlp_mixer_b_in21,1,223,NaN,clock,car,15,0223_lp_dnn_15_car_10_n04285008_2781.png
mlp_mixer_b_in21,1,224,NaN,cat,clock,3,0224_lp_dnn_3_clock_10_n04548280_21263.png
mlp_mixer_b_in21,1,225,NaN,bottle,car,15,0225_lp_dnn_15_car_10_n02814533_9785.png
mlp_mixer_b_in21,1,226,NaN,chair,truck,0,0226_lp_dnn_0_truck_10_n03417042_24100.png
mlp_mixer_b_in21,1,227,NaN,dog,dog,15,0227_lp_dnn_15_dog_10_n02091244_10926.png
mlp_mixer_b_in21,1,228,NaN,dog,bottle,40,0228_lp_dnn_40_bottle_10_n04591713_2537.png
mlp_mixer_b_in21,1,229,NaN,truck,bear,10,0229_lp_dnn_10_bear_10_n02134418_1311.png
mlp_mixer_b_in21,1,230,NaN,bird,bicycle,3,0230_lp_dnn_3_bicycle_10_n03792782_210.png
mlp_mixer_b_in21,1,231,NaN,dog,cat,3,0231_lp_dnn_3_cat_10_n02123045_5371.png
mlp_mixer_b_in21,1,232,NaN,truck,boat,15,0232_lp_dnn_15_boat_10_n04612504_19111.png
mlp_mixer_b_in21,1,233,NaN,bird,clock,1,0233_lp_dnn_1_clock_10_n03196217_7836.png
mlp_mixer_b_in21,1,234,NaN,dog,dog,0,0234_lp_dnn_0_dog_10_n02086910_9742.png
mlp_mixer_b_in21,1,235,NaN,truck,bottle,1,0235_lp_dnn_1_bottle_10_n03937543_4723.png
mlp_mixer_b_in21,1,236,NaN,bird,dog,5,0236_lp_dnn_5_dog_10_n02111129_6495.png
mlp_mixer_b_in21,1,237,NaN,bird,knife,1,0237_lp_dnn_1_knife_10_n03041632_3101.png
mlp_mixer_b_in21,1,238,NaN,dog,bear,0,0238_lp_dnn_0_bear_10_n02134084_7373.png
mlp_mixer_b_in21,1,239,NaN,truck,bird,7,0239_lp_dnn_7_bird_10_n02009229_11916.png
mlp_mixer_b_in21,1,240,NaN,truck,oven,7,0240_lp_dnn_7_oven_10_n04111531_14208.png
mlp_mixer_b_in21,1,241,NaN,chair,bird,3,0241_lp_dnn_3_bird_10_n01601694_20287.png
mlp_mixer_b_in21,1,242,NaN,truck,oven,15,0242_lp_dnn_15_oven_10_n04111531_5519.png
mlp_mixer_b_in21,1,243,NaN,bird,car,1,0243_lp_dnn_1_car_10_n04285008_10893.png
mlp_mixer_b_in21,1,244,NaN,bear,boat,40,0244_lp_dnn_40_boat_10_n02951358_16196.png
mlp_mixer_b_in21,1,245,NaN,truck,clock,7,0245_lp_dnn_7_clock_10_n04548280_532.png
mlp_mixer_b_in21,1,246,NaN,elephant,keyboard,0,0246_lp_dnn_0_keyboard_10_n04505470_73.png
mlp_mixer_b_in21,1,247,NaN,bird,bottle,10,0247_lp_dnn_10_bottle_10_n02823428_6766.png
mlp_mixer_b_in21,1,248,NaN,bottle,boat,15,0248_lp_dnn_15_boat_10_n02951358_26579.png
mlp_mixer_b_in21,1,249,NaN,dog,dog,10,0249_lp_dnn_10_dog_10_n02085782_7651.png
mlp_mixer_b_in21,1,250,NaN,cat,clock,3,0250_lp_dnn_3_clock_10_n02708093_1747.png
mlp_mixer_b_in21,1,251,NaN,bird,truck,3,0251_lp_dnn_3_truck_10_n04467665_19645.png
mlp_mixer_b_in21,1,252,NaN,truck,airplane,15,0252_lp_dnn_15_airplane_10_n02690373_17262.png
mlp_mixer_b_in21,1,253,NaN,dog,elephant,0,0253_lp_dnn_0_elephant_10_n02504458_10428.png
mlp_mixer_b_in21,1,254,NaN,dog,cat,7,0254_lp_dnn_7_cat_10_n02124075_9149.png
mlp_mixer_b_in21,1,255,NaN,truck,elephant,10,0255_lp_dnn_10_elephant_10_n02504013_7923.png
mlp_mixer_b_in21,1,256,NaN,bird,cat,3,0256_lp_dnn_3_cat_10_n02123394_4789.png
mlp_mixer_b_in21,1,257,NaN,truck,clock,5,0257_lp_dnn_5_clock_10_n03196217_2530.png
mlp_mixer_b_in21,1,258,NaN,bird,airplane,5,0258_lp_dnn_5_airplane_10_n02690373_6992.png
mlp_mixer_b_in21,1,259,NaN,bird,airplane,3,0259_lp_dnn_3_airplane_10_n02690373_5056.png
mlp_mixer_b_in21,1,260,NaN,dog,bear,1,0260_lp_dnn_1_bear_10_n02134418_2231.png
mlp_mixer_b_in21,1,261,NaN,oven,truck,10,0261_lp_dnn_10_truck_10_n03796401_180.png
mlp_mixer_b_in21,1,262,NaN,bird,bicycle,3,0262_lp_dnn_3_bicycle_10_n02835271_3246.png
mlp_mixer_b_in21,1,263,NaN,bird,truck,3,0263_lp_dnn_3_truck_10_n03796401_599.png
mlp_mixer_b_in21,1,264,NaN,dog,oven,7,0264_lp_dnn_7_oven_10_n04111531_13862.png
mlp_mixer_b_in21,1,265,NaN,dog,oven,0,0265_lp_dnn_0_oven_10_n04111531_10420.png
mlp_mixer_b_in21,1,266,NaN,bottle,car,10,0266_lp_dnn_10_car_10_n03100240_15531.png
mlp_mixer_b_in21,1,267,NaN,bird,dog,7,0267_lp_dnn_7_dog_10_n02099849_3128.png
mlp_mixer_b_in21,1,268,NaN,chair,chair,5,0268_lp_dnn_5_chair_10_n02791124_3222.png
mlp_mixer_b_in21,1,269,NaN,car,keyboard,5,0269_lp_dnn_5_keyboard_10_n04505470_8364.png
mlp_mixer_b_in21,1,270,NaN,bird,clock,0,0270_lp_dnn_0_clock_10_n04548280_9294.png
mlp_mixer_b_in21,1,271,NaN,truck,bottle,7,0271_lp_dnn_7_bottle_10_n03937543_3358.png
mlp_mixer_b_in21,1,272,NaN,oven,knife,7,0272_lp_dnn_7_knife_10_n03041632_2058.png
mlp_mixer_b_in21,1,273,NaN,bird,elephant,1,0273_lp_dnn_1_elephant_10_n02504458_5671.png
mlp_mixer_b_in21,1,274,NaN,bird,chair,10,0274_lp_dnn_10_chair_10_n02791124_6281.png
mlp_mixer_b_in21,1,275,NaN,oven,cat,15,0275_lp_dnn_15_cat_10_n02125311_44920.png
mlp_mixer_b_in21,1,276,NaN,bird,airplane,5,0276_lp_dnn_5_airplane_10_n02690373_2981.png
mlp_mixer_b_in21,1,277,NaN,cat,knife,1,0277_lp_dnn_1_knife_10_n03041632_2468.png
mlp_mixer_b_in21,1,278,NaN,bird,clock,1,0278_lp_dnn_1_clock_10_n02708093_3605.png
mlp_mixer_b_in21,1,279,NaN,bird,bicycle,1,0279_lp_dnn_1_bicycle_10_n02835271_19019.png
mlp_mixer_b_in21,1,280,NaN,dog,keyboard,7,0280_lp_dnn_7_keyboard_10_n03085013_1188.png
mlp_mixer_b_in21,1,281,NaN,cat,oven,1,0281_lp_dnn_1_oven_10_n04111531_2715.png
mlp_mixer_b_in21,1,282,NaN,bird,keyboard,10,0282_lp_dnn_10_keyboard_10_n03085013_9533.png
mlp_mixer_b_in21,1,283,NaN,dog,cat,3,0283_lp_dnn_3_cat_10_n02123045_20366.png
mlp_mixer_b_in21,1,284,NaN,bird,chair,5,0284_lp_dnn_5_chair_10_n03376595_302.png
mlp_mixer_b_in21,1,285,NaN,dog,cat,7,0285_lp_dnn_7_cat_10_n02123597_14267.png
mlp_mixer_b_in21,1,286,NaN,car,dog,15,0286_lp_dnn_15_dog_10_n02098286_2582.png
mlp_mixer_b_in21,1,287,NaN,bird,boat,1,0287_lp_dnn_1_boat_10_n03344393_4001.png
mlp_mixer_b_in21,1,288,NaN,truck,bicycle,15,0288_lp_dnn_15_bicycle_10_n02835271_6122.png
mlp_mixer_b_in21,1,289,NaN,bird,dog,3,0289_lp_dnn_3_dog_10_n02091134_3075.png
mlp_mixer_b_in21,1,290,NaN,truck,oven,40,0290_lp_dnn_40_oven_10_n04111531_4795.png
mlp_mixer_b_in21,1,291,NaN,bird,bottle,10,0291_lp_dnn_10_bottle_10_n04591713_4876.png
mlp_mixer_b_in21,1,292,NaN,car,bottle,0,0292_lp_dnn_0_bottle_10_n02823428_2510.png
mlp_mixer_b_in21,1,293,NaN,bird,keyboard,1,0293_lp_dnn_1_keyboard_10_n03085013_5950.png
mlp_mixer_b_in21,1,294,NaN,dog,bear,5,0294_lp_dnn_5_bear_10_n02133161_1490.png
mlp_mixer_b_in21,1,295,NaN,truck,truck,10,0295_lp_dnn_10_truck_10_n03796401_28465.png
mlp_mixer_b_in21,1,296,NaN,truck,bottle,15,0296_lp_dnn_15_bottle_10_n02823428_6627.png
mlp_mixer_b_in21,1,297,NaN,bird,truck,5,0297_lp_dnn_5_truck_10_n04467665_69582.png
mlp_mixer_b_in21,1,298,NaN,dog,bird,40,0298_lp_dnn_40_bird_10_n02006656_10568.png
mlp_mixer_b_in21,1,299,NaN,truck,car,40,0299_lp_dnn_40_car_10_n04285008_11748.png
mlp_mixer_b_in21,1,300,NaN,bird,truck,5,0300_lp_dnn_5_truck_10_n04467665_44714.png
mlp_mixer_b_in21,1,301,NaN,car,airplane,3,0301_lp_dnn_3_airplane_10_n02690373_7487.png
mlp_mixer_b_in21,1,302,NaN,cat,elephant,15,0302_lp_dnn_15_elephant_10_n02504458_7472.png
mlp_mixer_b_in21,1,303,NaN,bird,boat,3,0303_lp_dnn_3_boat_10_n03662601_25023.png
mlp_mixer_b_in21,1,304,NaN,bird,knife,0,0304_lp_dnn_0_knife_10_n03041632_101673.png
mlp_mixer_b_in21,1,305,NaN,truck,bottle,7,0305_lp_dnn_7_bottle_10_n03983396_587.png
mlp_mixer_b_in21,1,306,NaN,bird,cat,3,0306_lp_dnn_3_cat_10_n02124075_7692.png
mlp_mixer_b_in21,1,307,NaN,truck,oven,0,0307_lp_dnn_0_oven_10_n04111531_6313.png
mlp_mixer_b_in21,1,308,NaN,bird,bird,7,0308_lp_dnn_7_bird_10_n02018795_5770.png
mlp_mixer_b_in21,1,309,NaN,truck,bottle,3,0309_lp_dnn_3_bottle_10_n02823428_4658.png
mlp_mixer_b_in21,1,310,NaN,bird,airplane,1,0310_lp_dnn_1_airplane_10_n02690373_2724.png
mlp_mixer_b_in21,1,311,NaN,chair,boat,40,0311_lp_dnn_40_boat_10_n04612504_7446.png
mlp_mixer_b_in21,1,312,NaN,bird,boat,7,0312_lp_dnn_7_boat_10_n02951358_34783.png
mlp_mixer_b_in21,1,313,NaN,dog,cat,0,0313_lp_dnn_0_cat_10_n02123597_680.png
mlp_mixer_b_in21,1,314,NaN,car,bear,10,0314_lp_dnn_10_bear_10_n02133161_9863.png
mlp_mixer_b_in21,1,315,NaN,dog,bear,1,0315_lp_dnn_1_bear_10_n02133161_2100.png
mlp_mixer_b_in21,1,316,NaN,car,oven,3,0316_lp_dnn_3_oven_10_n04111531_8009.png
mlp_mixer_b_in21,1,317,NaN,oven,car,40,0317_lp_dnn_40_car_10_n03100240_16525.png
mlp_mixer_b_in21,1,318,NaN,cat,bird,5,0318_lp_dnn_5_bird_10_n01824575_4941.png
mlp_mixer_b_in21,1,319,NaN,car,knife,15,0319_lp_dnn_15_knife_10_n03041632_289.png
mlp_mixer_b_in21,1,320,NaN,truck,dog,10,0320_lp_dnn_10_dog_10_n02101006_15350.png
mlp_mixer_b_in21,1,321,NaN,clock,elephant,5,0321_lp_dnn_5_elephant_10_n02504458_1636.png
mlp_mixer_b_in21,1,322,NaN,cat,car,7,0322_lp_dnn_7_car_10_n04285008_8666.png
mlp_mixer_b_in21,1,323,NaN,oven,bottle,5,0323_lp_dnn_5_bottle_10_n02823428_5451.png
mlp_mixer_b_in21,1,324,NaN,bird,car,3,0324_lp_dnn_3_car_10_n03100240_2495.png
mlp_mixer_b_in21,1,325,NaN,truck,bicycle,10,0325_lp_dnn_10_bicycle_10_n02835271_19565.png
mlp_mixer_b_in21,1,326,NaN,bird,airplane,1,0326_lp_dnn_1_airplane_10_n02690373_349.png
mlp_mixer_b_in21,1,327,NaN,bird,cat,7,0327_lp_dnn_7_cat_10_n02123045_20512.png
mlp_mixer_b_in21,1,328,NaN,car,keyboard,1,0328_lp_dnn_1_keyboard_10_n03085013_23619.png
mlp_mixer_b_in21,1,329,NaN,bird,boat,7,0329_lp_dnn_7_boat_10_n03662601_16925.png
mlp_mixer_b_in21,1,330,NaN,truck,oven,10,0330_lp_dnn_10_oven_10_n04111531_12830.png
mlp_mixer_b_in21,1,331,NaN,dog,boat,5,0331_lp_dnn_5_boat_10_n02951358_33277.png
mlp_mixer_b_in21,1,332,NaN,cat,bear,15,0332_lp_dnn_15_bear_10_n02133161_156.png
mlp_mixer_b_in21,1,333,NaN,dog,cat,40,0333_lp_dnn_40_cat_10_n02124075_6638.png
mlp_mixer_b_in21,1,334,NaN,truck,keyboard,10,0334_lp_dnn_10_keyboard_10_n04505470_4587.png
mlp_mixer_b_in21,1,335,NaN,cat,bear,10,0335_lp_dnn_10_bear_10_n02134084_27899.png
mlp_mixer_b_in21,1,336,NaN,car,keyboard,0,0336_lp_dnn_0_keyboard_10_n03085013_10984.png
mlp_mixer_b_in21,1,337,NaN,cat,bottle,5,0337_lp_dnn_5_bottle_10_n03983396_10469.png
mlp_mixer_b_in21,1,338,NaN,oven,knife,10,0338_lp_dnn_10_knife_10_n03041632_20707.png
mlp_mixer_b_in21,1,339,NaN,bird,car,1,0339_lp_dnn_1_car_10_n04285008_9411.png
mlp_mixer_b_in21,1,340,NaN,chair,airplane,40,0340_lp_dnn_40_airplane_10_n02690373_4671.png
mlp_mixer_b_in21,1,341,NaN,bird,knife,7,0341_lp_dnn_7_knife_10_n03041632_16206.png
mlp_mixer_b_in21,1,342,NaN,bird,bicycle,5,0342_lp_dnn_5_bicycle_10_n03792782_7180.png
mlp_mixer_b_in21,1,343,NaN,dog,bear,0,0343_lp_dnn_0_bear_10_n02134418_2719.png
mlp_mixer_b_in21,1,344,NaN,car,chair,0,0344_lp_dnn_0_chair_10_n04099969_2038.png
mlp_mixer_b_in21,1,345,NaN,dog,dog,1,0345_lp_dnn_1_dog_10_n02113023_5237.png
mlp_mixer_b_in21,1,346,NaN,truck,airplane,40,0346_lp_dnn_40_airplane_10_n02690373_2525.png
mlp_mixer_b_in21,1,347,NaN,dog,clock,7,0347_lp_dnn_7_clock_10_n04548280_219.png
mlp_mixer_b_in21,1,348,NaN,truck,boat,15,0348_lp_dnn_15_boat_10_n04612504_2805.png
mlp_mixer_b_in21,1,349,NaN,bird,clock,7,0349_lp_dnn_7_clock_10_n02708093_7020.png
mlp_mixer_b_in21,1,350,NaN,bird,oven,3,0350_lp_dnn_3_oven_10_n04111531_5171.png
mlp_mixer_b_in21,1,351,NaN,dog,cat,3,0351_lp_dnn_3_cat_10_n02125311_37322.png
mlp_mixer_b_in21,1,352,NaN,dog,cat,7,0352_lp_dnn_7_cat_10_n02123597_14094.png
mlp_mixer_b_in21,1,353,NaN,cat,boat,15,0353_lp_dnn_15_boat_10_n02951358_13352.png
mlp_mixer_b_in21,1,354,NaN,truck,bicycle,10,0354_lp_dnn_10_bicycle_10_n02835271_20445.png
mlp_mixer_b_in21,1,355,NaN,bird,knife,7,0355_lp_dnn_7_knife_10_n03041632_4708.png
mlp_mixer_b_in21,1,356,NaN,cat,oven,7,0356_lp_dnn_7_oven_10_n04111531_505.png
mlp_mixer_b_in21,1,357,NaN,bird,bicycle,1,0357_lp_dnn_1_bicycle_10_n03792782_104.png
mlp_mixer_b_in21,1,358,NaN,truck,bottle,40,0358_lp_dnn_40_bottle_10_n04591713_5204.png
mlp_mixer_b_in21,1,359,NaN,dog,bicycle,5,0359_lp_dnn_5_bicycle_10_n03792782_5578.png
mlp_mixer_b_in21,1,360,NaN,dog,truck,10,0360_lp_dnn_10_truck_10_n03417042_1437.png
mlp_mixer_b_in21,1,361,NaN,bird,cat,0,0361_lp_dnn_0_cat_10_n02123045_7482.png
mlp_mixer_b_in21,1,362,NaN,dog,bird,10,0362_lp_dnn_10_bird_10_n02037110_554.png
mlp_mixer_b_in21,1,363,NaN,clock,bicycle,5,0363_lp_dnn_5_bicycle_10_n03792782_15.png
mlp_mixer_b_in21,1,364,NaN,bird,bicycle,5,0364_lp_dnn_5_bicycle_10_n02835271_7450.png
mlp_mixer_b_in21,1,365,NaN,car,boat,5,0365_lp_dnn_5_boat_10_n03344393_3881.png
mlp_mixer_b_in21,1,366,NaN,car,chair,10,0366_lp_dnn_10_chair_10_n04099969_3623.png
mlp_mixer_b_in21,1,367,NaN,truck,airplane,5,0367_lp_dnn_5_airplane_10_n02690373_2579.png
mlp_mixer_b_in21,1,368,NaN,oven,dog,15,0368_lp_dnn_15_dog_10_n02093859_3707.png
mlp_mixer_b_in21,1,369,NaN,bird,bottle,1,0369_lp_dnn_1_bottle_10_n04560804_22426.png
mlp_mixer_b_in21,1,370,NaN,truck,clock,15,0370_lp_dnn_15_clock_10_n03196217_82.png
mlp_mixer_b_in21,1,371,NaN,car,car,5,0371_lp_dnn_5_car_10_n03100240_16907.png
mlp_mixer_b_in21,1,372,NaN,cat,oven,5,0372_lp_dnn_5_oven_10_n04111531_9548.png
mlp_mixer_b_in21,1,373,NaN,cat,clock,7,0373_lp_dnn_7_clock_10_n02708093_3751.png
mlp_mixer_b_in21,1,374,NaN,oven,car,7,0374_lp_dnn_7_car_10_n02814533_6593.png
mlp_mixer_b_in21,1,375,NaN,boat,airplane,0,0375_lp_dnn_0_airplane_10_n02690373_3212.png
mlp_mixer_b_in21,1,376,NaN,dog,cat,1,0376_lp_dnn_1_cat_10_n02123045_5820.png
mlp_mixer_b_in21,1,377,NaN,bird,elephant,3,0377_lp_dnn_3_elephant_10_n02504458_205.png
mlp_mixer_b_in21,1,378,NaN,truck,elephant,10,0378_lp_dnn_10_elephant_10_n02504013_3425.png
mlp_mixer_b_in21,1,379,NaN,cat,bird,15,0379_lp_dnn_15_bird_10_n02056570_9572.png
mlp_mixer_b_in21,1,380,NaN,truck,elephant,40,0380_lp_dnn_40_elephant_10_n02504013_7635.png
mlp_mixer_b_in21,1,381,NaN,truck,boat,10,0381_lp_dnn_10_boat_10_n04273569_10716.png
mlp_mixer_b_in21,1,382,NaN,cat,bear,15,0382_lp_dnn_15_bear_10_n02134084_19849.png
mlp_mixer_b_in21,1,383,NaN,truck,boat,40,0383_lp_dnn_40_boat_10_n03662601_35800.png
mlp_mixer_b_in21,1,384,NaN,truck,bicycle,40,0384_lp_dnn_40_bicycle_10_n03792782_29276.png
mlp_mixer_b_in21,1,385,NaN,truck,oven,10,0385_lp_dnn_10_oven_10_n04111531_4392.png
mlp_mixer_b_in21,1,386,NaN,elephant,airplane,0,0386_lp_dnn_0_airplane_10_n02690373_7099.png
mlp_mixer_b_in21,1,387,NaN,bird,cat,5,0387_lp_dnn_5_cat_10_n02124075_13187.png
mlp_mixer_b_in21,1,388,NaN,car,knife,0,0388_lp_dnn_0_knife_10_n03041632_32048.png
mlp_mixer_b_in21,1,389,NaN,dog,airplane,3,0389_lp_dnn_3_airplane_10_n02690373_20074.png
mlp_mixer_b_in21,1,390,NaN,bird,car,1,0390_lp_dnn_1_car_10_n02814533_83577.png
mlp_mixer_b_in21,1,391,NaN,truck,airplane,40,0391_lp_dnn_40_airplane_10_n02690373_19134.png
mlp_mixer_b_in21,1,392,NaN,dog,knife,3,0392_lp_dnn_3_knife_10_n03041632_13130.png
mlp_mixer_b_in21,1,393,NaN,dog,knife,0,0393_lp_dnn_0_knife_10_n03041632_1006.png
mlp_mixer_b_in21,1,394,NaN,dog,elephant,1,0394_lp_dnn_1_elephant_10_n02504458_7634.png
mlp_mixer_b_in21,1,395,NaN,bird,bicycle,1,0395_lp_dnn_1_bicycle_10_n02835271_17184.png
mlp_mixer_b_in21,1,396,NaN,bird,oven,0,0396_lp_dnn_0_oven_10_n04111531_2189.png
mlp_mixer_b_in21,1,397,NaN,truck,cat,15,0397_lp_dnn_15_cat_10_n02124075_11888.png
mlp_mixer_b_in21,1,398,NaN,cat,cat,10,0398_lp_dnn_10_cat_10_n02123394_1690.png
mlp_mixer_b_in21,1,399,NaN,bird,dog,1,0399_lp_dnn_1_dog_10_n02111500_2905.png
mlp_mixer_b_in21,1,400,NaN,cat,knife,5,0400_lp_dnn_5_knife_10_n03041632_20433.png
mlp_mixer_b_in21,1,401,NaN,cat,clock,15,0401_lp_dnn_15_clock_10_n04548280_22641.png
mlp_mixer_b_in21,1,402,NaN,cat,bottle,15,0402_lp_dnn_15_bottle_10_n04557648_634.png
mlp_mixer_b_in21,1,403,NaN,bird,truck,1,0403_lp_dnn_1_truck_10_n04467665_69447.png
mlp_mixer_b_in21,1,404,NaN,bird,elephant,3,0404_lp_dnn_3_elephant_10_n02504013_1777.png
mlp_mixer_b_in21,1,405,NaN,chair,truck,0,0405_lp_dnn_0_truck_10_n03796401_2559.png
mlp_mixer_b_in21,1,406,NaN,bird,car,1,0406_lp_dnn_1_car_10_n02814533_42547.png
mlp_mixer_b_in21,1,407,NaN,dog,clock,15,0407_lp_dnn_15_clock_10_n04548280_7181.png
mlp_mixer_b_in21,1,408,NaN,bird,boat,1,0408_lp_dnn_1_boat_10_n03344393_5030.png
mlp_mixer_b_in21,1,409,NaN,cat,bottle,15,0409_lp_dnn_15_bottle_10_n04591713_2952.png
mlp_mixer_b_in21,1,410,NaN,cat,keyboard,5,0410_lp_dnn_5_keyboard_10_n04505470_4742.png
mlp_mixer_b_in21,1,411,NaN,cat,bear,7,0411_lp_dnn_7_bear_10_n02134418_4696.png
mlp_mixer_b_in21,1,412,NaN,truck,bear,40,0412_lp_dnn_40_bear_10_n02132136_5815.png
mlp_mixer_b_in21,1,413,NaN,cat,bicycle,15,0413_lp_dnn_15_bicycle_10_n02835271_8203.png
mlp_mixer_b_in21,1,414,NaN,truck,car,40,0414_lp_dnn_40_car_10_n04285008_12868.png
mlp_mixer_b_in21,1,415,NaN,dog,bear,40,0415_lp_dnn_40_bear_10_n02132136_7074.png
mlp_mixer_b_in21,1,416,NaN,truck,boat,3,0416_lp_dnn_3_boat_10_n03344393_8265.png
mlp_mixer_b_in21,1,417,NaN,car,truck,10,0417_lp_dnn_10_truck_10_n04467665_12177.png
mlp_mixer_b_in21,1,418,NaN,bird,car,3,0418_lp_dnn_3_car_10_n03100240_8987.png
mlp_mixer_b_in21,1,419,NaN,cat,bird,15,0419_lp_dnn_15_bird_10_n01530575_10601.png
mlp_mixer_b_in21,1,420,NaN,bird,keyboard,15,0420_lp_dnn_15_keyboard_10_n04505470_313.png
mlp_mixer_b_in21,1,421,NaN,bird,truck,1,0421_lp_dnn_1_truck_10_n03417042_5371.png
mlp_mixer_b_in21,1,422,NaN,bird,truck,0,0422_lp_dnn_0_truck_10_n03796401_29952.png
mlp_mixer_b_in21,1,423,NaN,cat,bicycle,5,0423_lp_dnn_5_bicycle_10_n03792782_6159.png
mlp_mixer_b_in21,1,424,NaN,dog,elephant,7,0424_lp_dnn_7_elephant_10_n02504458_1336.png
mlp_mixer_b_in21,1,425,NaN,bird,bicycle,10,0425_lp_dnn_10_bicycle_10_n02835271_8597.png
mlp_mixer_b_in21,1,426,NaN,oven,keyboard,3,0426_lp_dnn_3_keyboard_10_n04505470_3615.png
mlp_mixer_b_in21,1,427,NaN,bird,dog,7,0427_lp_dnn_7_dog_10_n02090721_7040.png
mlp_mixer_b_in21,1,428,NaN,dog,cat,0,0428_lp_dnn_0_cat_10_n02124075_17347.png
mlp_mixer_b_in21,1,429,NaN,bicycle,keyboard,0,0429_lp_dnn_0_keyboard_10_n03085013_23018.png
mlp_mixer_b_in21,1,430,NaN,dog,car,40,0430_lp_dnn_40_car_10_n03100240_5018.png
mlp_mixer_b_in21,1,431,NaN,oven,dog,40,0431_lp_dnn_40_dog_10_n02105056_12631.png
mlp_mixer_b_in21,1,432,NaN,truck,knife,15,0432_lp_dnn_15_knife_10_n03041632_27848.png
mlp_mixer_b_in21,1,433,NaN,chair,keyboard,3,0433_lp_dnn_3_keyboard_10_n04505470_4432.png
mlp_mixer_b_in21,1,434,NaN,car,bear,15,0434_lp_dnn_15_bear_10_n02132136_786.png
mlp_mixer_b_in21,1,435,NaN,truck,truck,15,0435_lp_dnn_15_truck_10_n03796401_10519.png
mlp_mixer_b_in21,1,436,NaN,bird,airplane,5,0436_lp_dnn_5_airplane_10_n02690373_9086.png
mlp_mixer_b_in21,1,437,NaN,bird,boat,0,0437_lp_dnn_0_boat_10_n02951358_512.png
mlp_mixer_b_in21,1,438,NaN,cat,bear,10,0438_lp_dnn_10_bear_10_n02132136_10468.png
mlp_mixer_b_in21,1,439,NaN,truck,bear,5,0439_lp_dnn_5_bear_10_n02134084_13175.png
mlp_mixer_b_in21,1,440,NaN,bird,dog,10,0440_lp_dnn_10_dog_10_n02088364_2119.png
mlp_mixer_b_in21,1,441,NaN,bird,boat,1,0441_lp_dnn_1_boat_10_n04612504_26238.png
mlp_mixer_b_in21,1,442,NaN,dog,bear,3,0442_lp_dnn_3_bear_10_n02134084_20142.png
mlp_mixer_b_in21,1,443,NaN,bird,dog,5,0443_lp_dnn_5_dog_10_n02107683_1076.png
mlp_mixer_b_in21,1,444,NaN,cat,car,3,0444_lp_dnn_3_car_10_n02814533_35386.png
mlp_mixer_b_in21,1,445,NaN,truck,bird,3,0445_lp_dnn_3_bird_10_n01531178_15380.png
mlp_mixer_b_in21,1,446,NaN,truck,bear,7,0446_lp_dnn_7_bear_10_n02134084_17529.png
mlp_mixer_b_in21,1,447,NaN,truck,bicycle,10,0447_lp_dnn_10_bicycle_10_n02835271_22623.png
mlp_mixer_b_in21,1,448,NaN,cat,chair,15,0448_lp_dnn_15_chair_10_n02791124_3160.png
mlp_mixer_b_in21,1,449,NaN,bird,bottle,0,0449_lp_dnn_0_bottle_10_n02823428_2422.png
mlp_mixer_b_in21,1,450,NaN,bird,bear,7,0450_lp_dnn_7_bear_10_n02134084_34902.png
mlp_mixer_b_in21,1,451,NaN,bottle,bicycle,15,0451_lp_dnn_15_bicycle_10_n02835271_3535.png
mlp_mixer_b_in21,1,452,NaN,truck,oven,1,0452_lp_dnn_1_oven_10_n04111531_10640.png
mlp_mixer_b_in21,1,453,NaN,oven,keyboard,40,0453_lp_dnn_40_keyboard_10_n04505470_1338.png
mlp_mixer_b_in21,1,454,NaN,chair,keyboard,0,0454_lp_dnn_0_keyboard_10_n03085013_26656.png
mlp_mixer_b_in21,1,455,NaN,bird,boat,5,0455_lp_dnn_5_boat_10_n03344393_9575.png
mlp_mixer_b_in21,1,456,NaN,bird,boat,1,0456_lp_dnn_1_boat_10_n03344393_4616.png
mlp_mixer_b_in21,1,457,NaN,bird,bicycle,0,0457_lp_dnn_0_bicycle_10_n02835271_11929.png
mlp_mixer_b_in21,1,458,NaN,chair,keyboard,3,0458_lp_dnn_3_keyboard_10_n03085013_20515.png
mlp_mixer_b_in21,1,459,NaN,dog,dog,40,0459_lp_dnn_40_dog_10_n02088364_3791.png
mlp_mixer_b_in21,1,460,NaN,car,airplane,0,0460_lp_dnn_0_airplane_10_n02690373_10114.png
mlp_mixer_b_in21,1,461,NaN,car,airplane,10,0461_lp_dnn_10_airplane_10_n02690373_8543.png
mlp_mixer_b_in21,1,462,NaN,car,chair,7,0462_lp_dnn_7_chair_10_n04429376_14967.png
mlp_mixer_b_in21,1,463,NaN,truck,cat,15,0463_lp_dnn_15_cat_10_n02125311_24439.png
mlp_mixer_b_in21,1,464,NaN,bird,truck,5,0464_lp_dnn_5_truck_10_n03417042_4665.png
mlp_mixer_b_in21,1,465,NaN,oven,elephant,40,0465_lp_dnn_40_elephant_10_n02504013_4044.png
mlp_mixer_b_in21,1,466,NaN,car,bird,1,0466_lp_dnn_1_bird_10_n01843065_3596.png
mlp_mixer_b_in21,1,467,NaN,truck,bird,10,0467_lp_dnn_10_bird_10_n02011460_17499.png
mlp_mixer_b_in21,1,468,NaN,dog,elephant,0,0468_lp_dnn_0_elephant_10_n02504458_7506.png
mlp_mixer_b_in21,1,469,NaN,truck,keyboard,40,0469_lp_dnn_40_keyboard_10_n03085013_21955.png
mlp_mixer_b_in21,1,470,NaN,dog,clock,40,0470_lp_dnn_40_clock_10_n02708093_7810.png
mlp_mixer_b_in21,1,471,NaN,truck,car,40,0471_lp_dnn_40_car_10_n02814533_7984.png
mlp_mixer_b_in21,1,472,NaN,bird,dog,5,0472_lp_dnn_5_dog_10_n02106382_1806.png
mlp_mixer_b_in21,1,473,NaN,cat,chair,15,0473_lp_dnn_15_chair_10_n02791124_3890.png
mlp_mixer_b_in21,1,474,NaN,bird,elephant,7,0474_lp_dnn_7_elephant_10_n02504013_16929.png
mlp_mixer_b_in21,1,475,NaN,bird,elephant,7,0475_lp_dnn_7_elephant_10_n02504013_8052.png
mlp_mixer_b_in21,1,476,NaN,dog,bear,1,0476_lp_dnn_1_bear_10_n02132136_1584.png
mlp_mixer_b_in21,1,477,NaN,bird,keyboard,1,0477_lp_dnn_1_keyboard_10_n04505470_532.png
mlp_mixer_b_in21,1,478,NaN,bird,airplane,1,0478_lp_dnn_1_airplane_10_n02690373_3988.png
mlp_mixer_b_in21,1,479,NaN,car,bicycle,15,0479_lp_dnn_15_bicycle_10_n03792782_13051.png
mlp_mixer_b_in21,1,480,NaN,dog,bear,3,0480_lp_dnn_3_bear_10_n02134084_4818.png
mlp_mixer_b_in21,1,481,NaN,cat,boat,10,0481_lp_dnn_10_boat_10_n02951358_9146.png
mlp_mixer_b_in21,1,482,NaN,dog,keyboard,40,0482_lp_dnn_40_keyboard_10_n03085013_19317.png
mlp_mixer_b_in21,1,483,NaN,truck,bicycle,40,0483_lp_dnn_40_bicycle_10_n03792782_17666.png
mlp_mixer_b_in21,1,484,NaN,oven,bear,40,0484_lp_dnn_40_bear_10_n02133161_20090.png
mlp_mixer_b_in21,1,485,NaN,bird,bottle,3,0485_lp_dnn_3_bottle_10_n03937543_11101.png
mlp_mixer_b_in21,1,486,NaN,dog,bear,7,0486_lp_dnn_7_bear_10_n02133161_2281.png
mlp_mixer_b_in21,1,487,NaN,truck,airplane,10,0487_lp_dnn_10_airplane_10_n02690373_8813.png
mlp_mixer_b_in21,1,488,NaN,truck,boat,40,0488_lp_dnn_40_boat_10_n03662601_33625.png
mlp_mixer_b_in21,1,489,NaN,car,cat,40,0489_lp_dnn_40_cat_10_n02124075_9066.png
mlp_mixer_b_in21,1,490,NaN,bird,oven,3,0490_lp_dnn_3_oven_10_n04111531_10216.png
mlp_mixer_b_in21,1,491,NaN,dog,bird,7,0491_lp_dnn_7_bird_10_n01614925_1097.png
mlp_mixer_b_in21,1,492,NaN,truck,bird,0,0492_lp_dnn_0_bird_10_n02017213_1163.png
mlp_mixer_b_in21,1,493,NaN,truck,oven,40,0493_lp_dnn_40_oven_10_n04111531_283.png
mlp_mixer_b_in21,1,494,NaN,truck,truck,15,0494_lp_dnn_15_truck_10_n04467665_39317.png
mlp_mixer_b_in21,1,495,NaN,dog,dog,1,0495_lp_dnn_1_dog_10_n02093754_5037.png
mlp_mixer_b_in21,1,496,NaN,truck,bicycle,40,0496_lp_dnn_40_bicycle_10_n02835271_2580.png
mlp_mixer_b_in21,1,497,NaN,truck,airplane,7,0497_lp_dnn_7_airplane_10_n02690373_2564.png
mlp_mixer_b_in21,1,498,NaN,dog,truck,40,0498_lp_dnn_40_truck_10_n04467665_62626.png
mlp_mixer_b_in21,1,499,NaN,car,chair,10,0499_lp_dnn_10_chair_10_n04429376_2450.png
mlp_mixer_b_in21,1,500,NaN,elephant,keyboard,0,0500_lp_dnn_0_keyboard_10_n04505470_4044.png
mlp_mixer_b_in21,1,501,NaN,truck,oven,15,0501_lp_dnn_15_oven_10_n04111531_8269.png
mlp_mixer_b_in21,1,502,NaN,cat,clock,7,0502_lp_dnn_7_clock_10_n02708093_6890.png
mlp_mixer_b_in21,1,503,NaN,dog,oven,40,0503_lp_dnn_40_oven_10_n04111531_15947.png
mlp_mixer_b_in21,1,504,NaN,car,bicycle,15,0504_lp_dnn_15_bicycle_10_n03792782_24734.png
mlp_mixer_b_in21,1,505,NaN,truck,chair,40,0505_lp_dnn_40_chair_10_n04099969_10401.png
mlp_mixer_b_in21,1,506,NaN,dog,elephant,3,0506_lp_dnn_3_elephant_10_n02504458_2994.png
mlp_mixer_b_in21,1,507,NaN,dog,dog,0,0507_lp_dnn_0_dog_10_n02108422_1164.png
mlp_mixer_b_in21,1,508,NaN,cat,clock,5,0508_lp_dnn_5_clock_10_n04548280_2421.png
mlp_mixer_b_in21,1,509,NaN,oven,oven,5,0509_lp_dnn_5_oven_10_n04111531_2930.png
mlp_mixer_b_in21,1,510,NaN,dog,bear,1,0510_lp_dnn_1_bear_10_n02132136_4271.png
mlp_mixer_b_in21,1,511,NaN,bird,oven,7,0511_lp_dnn_7_oven_10_n04111531_8603.png
mlp_mixer_b_in21,1,512,NaN,dog,bicycle,40,0512_lp_dnn_40_bicycle_10_n02835271_16850.png
mlp_mixer_b_in21,1,513,NaN,cat,knife,3,0513_lp_dnn_3_knife_10_n03041632_47410.png
mlp_mixer_b_in21,1,514,NaN,bird,elephant,15,0514_lp_dnn_15_elephant_10_n02504458_1000.png
mlp_mixer_b_in21,1,515,NaN,dog,cat,1,0515_lp_dnn_1_cat_10_n02124075_8884.png
mlp_mixer_b_in21,1,516,NaN,bird,bird,7,0516_lp_dnn_7_bird_10_n01622779_1370.png
mlp_mixer_b_in21,1,517,NaN,dog,cat,0,0517_lp_dnn_0_cat_10_n02123045_8215.png
mlp_mixer_b_in21,1,518,NaN,dog,car,5,0518_lp_dnn_5_car_10_n03100240_3083.png
mlp_mixer_b_in21,1,519,NaN,bird,bicycle,3,0519_lp_dnn_3_bicycle_10_n03792782_9280.png
mlp_mixer_b_in21,1,520,NaN,truck,bird,5,0520_lp_dnn_5_bird_10_n01819313_3505.png
mlp_mixer_b_in21,1,521,NaN,car,bird,15,0521_lp_dnn_15_bird_10_n01531178_5130.png
mlp_mixer_b_in21,1,522,NaN,dog,clock,15,0522_lp_dnn_15_clock_10_n02708093_2867.png
mlp_mixer_b_in21,1,523,NaN,bird,bear,7,0523_lp_dnn_7_bear_10_n02134418_258.png
mlp_mixer_b_in21,1,524,NaN,bird,bottle,1,0524_lp_dnn_1_bottle_10_n02823428_8280.png
mlp_mixer_b_in21,1,525,NaN,car,elephant,7,0525_lp_dnn_7_elephant_10_n02504013_24811.png
mlp_mixer_b_in21,1,526,NaN,dog,bicycle,40,0526_lp_dnn_40_bicycle_10_n02835271_14499.png
mlp_mixer_b_in21,1,527,NaN,oven,bottle,0,0527_lp_dnn_0_bottle_10_n02823428_14536.png
mlp_mixer_b_in21,1,528,NaN,cat,knife,5,0528_lp_dnn_5_knife_10_n03041632_21723.png
mlp_mixer_b_in21,1,529,NaN,dog,cat,10,0529_lp_dnn_10_cat_10_n02123159_8396.png
mlp_mixer_b_in21,1,530,NaN,truck,bottle,40,0530_lp_dnn_40_bottle_10_n02823428_3486.png
mlp_mixer_b_in21,1,531,NaN,dog,bird,0,0531_lp_dnn_0_bird_10_n01514859_12705.png
mlp_mixer_b_in21,1,532,NaN,bird,dog,7,0532_lp_dnn_7_dog_10_n02097047_911.png
mlp_mixer_b_in21,1,533,NaN,car,keyboard,10,0533_lp_dnn_10_keyboard_10_n04505470_3132.png
mlp_mixer_b_in21,1,534,NaN,truck,airplane,1,0534_lp_dnn_1_airplane_10_n02690373_11908.png
mlp_mixer_b_in21,1,535,NaN,car,elephant,40,0535_lp_dnn_40_elephant_10_n02504458_5169.png
mlp_mixer_b_in21,1,536,NaN,oven,bottle,15,0536_lp_dnn_15_bottle_10_n03937543_5375.png
mlp_mixer_b_in21,1,537,NaN,bird,bottle,1,0537_lp_dnn_1_bottle_10_n04591713_6138.png
mlp_mixer_b_in21,1,538,NaN,truck,bottle,15,0538_lp_dnn_15_bottle_10_n04557648_12559.png
mlp_mixer_b_in21,1,539,NaN,truck,clock,40,0539_lp_dnn_40_clock_10_n03196217_3903.png
mlp_mixer_b_in21,1,540,NaN,cat,keyboard,15,0540_lp_dnn_15_keyboard_10_n04505470_4732.png
mlp_mixer_b_in21,1,541,NaN,truck,knife,40,0541_lp_dnn_40_knife_10_n03041632_8468.png
mlp_mixer_b_in21,1,542,NaN,bird,chair,3,0542_lp_dnn_3_chair_10_n02791124_14040.png
mlp_mixer_b_in21,1,543,NaN,car,boat,15,0543_lp_dnn_15_boat_10_n04273569_3095.png
mlp_mixer_b_in21,1,544,NaN,dog,bird,1,0544_lp_dnn_1_bird_10_n02002724_18548.png
mlp_mixer_b_in21,1,545,NaN,cat,oven,10,0545_lp_dnn_10_oven_10_n04111531_8537.png
mlp_mixer_b_in21,1,546,NaN,car,chair,40,0546_lp_dnn_40_chair_10_n02791124_1935.png
mlp_mixer_b_in21,1,547,NaN,oven,dog,5,0547_lp_dnn_5_dog_10_n02102040_1660.png
mlp_mixer_b_in21,1,548,NaN,dog,bear,0,0548_lp_dnn_0_bear_10_n02134084_7790.png
mlp_mixer_b_in21,1,549,NaN,bird,knife,10,0549_lp_dnn_10_knife_10_n03041632_17091.png
mlp_mixer_b_in21,1,550,NaN,truck,keyboard,5,0550_lp_dnn_5_keyboard_10_n04505470_9331.png
mlp_mixer_b_in21,1,551,NaN,oven,airplane,5,0551_lp_dnn_5_airplane_10_n02690373_6887.png
mlp_mixer_b_in21,1,552,NaN,bird,chair,1,0552_lp_dnn_1_chair_10_n02791124_2540.png
mlp_mixer_b_in21,1,553,NaN,bird,truck,3,0553_lp_dnn_3_truck_10_n03796401_23774.png
mlp_mixer_b_in21,1,554,NaN,truck,knife,40,0554_lp_dnn_40_knife_10_n03041632_28201.png
mlp_mixer_b_in21,1,555,NaN,truck,clock,5,0555_lp_dnn_5_clock_10_n04548280_3563.png
mlp_mixer_b_in21,1,556,NaN,dog,bicycle,0,0556_lp_dnn_0_bicycle_10_n03792782_8287.png
mlp_mixer_b_in21,1,557,NaN,dog,clock,3,0557_lp_dnn_3_clock_10_n04548280_4225.png
mlp_mixer_b_in21,1,558,NaN,chair,car,0,0558_lp_dnn_0_car_10_n04285008_11931.png
mlp_mixer_b_in21,1,559,NaN,bird,elephant,5,0559_lp_dnn_5_elephant_10_n02504013_9396.png
mlp_mixer_b_in21,1,560,NaN,oven,boat,40,0560_lp_dnn_40_boat_10_n03344393_2915.png
mlp_mixer_b_in21,1,561,NaN,truck,bicycle,7,0561_lp_dnn_7_bicycle_10_n03792782_9692.png
mlp_mixer_b_in21,1,562,NaN,chair,chair,7,0562_lp_dnn_7_chair_10_n02791124_57.png
mlp_mixer_b_in21,1,563,NaN,cat,car,40,0563_lp_dnn_40_car_10_n04285008_3185.png
mlp_mixer_b_in21,1,564,NaN,bird,boat,1,0564_lp_dnn_1_boat_10_n02951358_34917.png
mlp_mixer_b_in21,1,565,NaN,elephant,clock,0,0565_lp_dnn_0_clock_10_n02708093_2762.png
mlp_mixer_b_in21,1,566,NaN,cat,knife,5,0566_lp_dnn_5_knife_10_n03041632_4879.png
mlp_mixer_b_in21,1,567,NaN,bird,car,0,0567_lp_dnn_0_car_10_n02814533_4689.png
mlp_mixer_b_in21,1,568,NaN,bird,boat,1,0568_lp_dnn_1_boat_10_n02951358_2445.png
mlp_mixer_b_in21,1,569,NaN,dog,truck,40,0569_lp_dnn_40_truck_10_n03417042_10038.png
mlp_mixer_b_in21,1,570,NaN,truck,car,10,0570_lp_dnn_10_car_10_n02814533_32924.png
mlp_mixer_b_in21,1,571,NaN,truck,bottle,10,0571_lp_dnn_10_bottle_10_n02823428_5135.png
mlp_mixer_b_in21,1,572,NaN,bird,keyboard,1,0572_lp_dnn_1_keyboard_10_n03085013_9066.png
mlp_mixer_b_in21,1,573,NaN,truck,oven,10,0573_lp_dnn_10_oven_10_n04111531_11279.png
mlp_mixer_b_in21,1,574,NaN,clock,car,10,0574_lp_dnn_10_car_10_n04285008_12182.png
mlp_mixer_b_in21,1,575,NaN,dog,bear,0,0575_lp_dnn_0_bear_10_n02133161_5681.png
mlp_mixer_b_in21,1,576,NaN,elephant,dog,5,0576_lp_dnn_5_dog_10_n02108915_5514.png
mlp_mixer_b_in21,1,577,NaN,truck,airplane,15,0577_lp_dnn_15_airplane_10_n02690373_7239.png
mlp_mixer_b_in21,1,578,NaN,dog,dog,0,0578_lp_dnn_0_dog_10_n02094258_4979.png
mlp_mixer_b_in21,1,579,NaN,bird,chair,3,0579_lp_dnn_3_chair_10_n04429376_15078.png
mlp_mixer_b_in21,1,580,NaN,oven,clock,40,0580_lp_dnn_40_clock_10_n02708093_8276.png
mlp_mixer_b_in21,1,581,NaN,chair,keyboard,3,0581_lp_dnn_3_keyboard_10_n04505470_3947.png
mlp_mixer_b_in21,1,582,NaN,dog,car,15,0582_lp_dnn_15_car_10_n03100240_2996.png
mlp_mixer_b_in21,1,583,NaN,bird,cat,10,0583_lp_dnn_10_cat_10_n02123159_3226.png
mlp_mixer_b_in21,1,584,NaN,dog,truck,7,0584_lp_dnn_7_truck_10_n03417042_19905.png
mlp_mixer_b_in21,1,585,NaN,bird,bird,0,0585_lp_dnn_0_bird_10_n02009229_4838.png
mlp_mixer_b_in21,1,586,NaN,bird,oven,1,0586_lp_dnn_1_oven_10_n04111531_14383.png
mlp_mixer_b_in21,1,587,NaN,bird,bear,5,0587_lp_dnn_5_bear_10_n02132136_1152.png
mlp_mixer_b_in21,1,588,NaN,dog,cat,0,0588_lp_dnn_0_cat_10_n02123597_10952.png
mlp_mixer_b_in21,1,589,NaN,bird,boat,0,0589_lp_dnn_0_boat_10_n04273569_12318.png
mlp_mixer_b_in21,1,590,NaN,truck,bottle,40,0590_lp_dnn_40_bottle_10_n03937543_1391.png
mlp_mixer_b_in21,1,591,NaN,truck,dog,10,0591_lp_dnn_10_dog_10_n02091032_9464.png
mlp_mixer_b_in21,1,592,NaN,bird,oven,7,0592_lp_dnn_7_oven_10_n04111531_5218.png
mlp_mixer_b_in21,1,593,NaN,bird,airplane,5,0593_lp_dnn_5_airplane_10_n02690373_9423.png
mlp_mixer_b_in21,1,594,NaN,clock,bird,1,0594_lp_dnn_1_bird_10_n01860187_348.png
mlp_mixer_b_in21,1,595,NaN,truck,bird,40,0595_lp_dnn_40_bird_10_n02006656_8975.png
mlp_mixer_b_in21,1,596,NaN,bird,oven,10,0596_lp_dnn_10_oven_10_n04111531_7619.png
mlp_mixer_b_in21,1,597,NaN,bird,bicycle,3,0597_lp_dnn_3_bicycle_10_n02835271_9202.png
mlp_mixer_b_in21,1,598,NaN,dog,boat,10,0598_lp_dnn_10_boat_10_n03344393_7826.png
mlp_mixer_b_in21,1,599,NaN,dog,elephant,3,0599_lp_dnn_3_elephant_10_n02504013_10330.png
mlp_mixer_b_in21,1,600,NaN,car,truck,10,0600_lp_dnn_10_truck_10_n04467665_69202.png
mlp_mixer_b_in21,1,601,NaN,bird,keyboard,7,0601_lp_dnn_7_keyboard_10_n04505470_1120.png
mlp_mixer_b_in21,1,602,NaN,bird,car,5,0602_lp_dnn_5_car_10_n04285008_434.png
mlp_mixer_b_in21,1,603,NaN,dog,cat,1,0603_lp_dnn_1_cat_10_n02123597_7592.png
mlp_mixer_b_in21,1,604,NaN,cat,dog,15,0604_lp_dnn_15_dog_10_n02090721_583.png
mlp_mixer_b_in21,1,605,NaN,bird,knife,1,0605_lp_dnn_1_knife_10_n03041632_86783.png
mlp_mixer_b_in21,1,606,NaN,truck,dog,10,0606_lp_dnn_10_dog_10_n02112018_11708.png
mlp_mixer_b_in21,1,607,NaN,bird,bird,0,0607_lp_dnn_0_bird_10_n02018795_5662.png
mlp_mixer_b_in21,1,608,NaN,bird,elephant,5,0608_lp_dnn_5_elephant_10_n02504013_1088.png
mlp_mixer_b_in21,1,609,NaN,dog,elephant,5,0609_lp_dnn_5_elephant_10_n02504458_66.png
mlp_mixer_b_in21,1,610,NaN,truck,dog,10,0610_lp_dnn_10_dog_10_n02105056_9099.png
mlp_mixer_b_in21,1,611,NaN,cat,boat,10,0611_lp_dnn_10_boat_10_n04273569_19699.png
mlp_mixer_b_in21,1,612,NaN,dog,dog,1,0612_lp_dnn_1_dog_10_n02097047_2376.png
mlp_mixer_b_in21,1,613,NaN,truck,boat,1,0613_lp_dnn_1_boat_10_n03662601_11901.png
mlp_mixer_b_in21,1,614,NaN,bird,oven,1,0614_lp_dnn_1_oven_10_n04111531_7667.png
mlp_mixer_b_in21,1,615,NaN,truck,knife,10,0615_lp_dnn_10_knife_10_n03041632_24384.png
mlp_mixer_b_in21,1,616,NaN,bird,car,7,0616_lp_dnn_7_car_10_n03100240_1216.png
mlp_mixer_b_in21,1,617,NaN,bird,bicycle,0,0617_lp_dnn_0_bicycle_10_n03792782_3136.png
mlp_mixer_b_in21,1,618,NaN,cat,keyboard,5,0618_lp_dnn_5_keyboard_10_n03085013_26573.png
mlp_mixer_b_in21,1,619,NaN,car,chair,0,0619_lp_dnn_0_chair_10_n04429376_7888.png
mlp_mixer_b_in21,1,620,NaN,truck,chair,5,0620_lp_dnn_5_chair_10_n03376595_899.png
mlp_mixer_b_in21,1,621,NaN,bird,bicycle,5,0621_lp_dnn_5_bicycle_10_n02835271_24207.png
mlp_mixer_b_in21,1,622,NaN,bird,oven,3,0622_lp_dnn_3_oven_10_n04111531_7329.png
mlp_mixer_b_in21,1,623,NaN,bird,oven,5,0623_lp_dnn_5_oven_10_n04111531_12942.png
mlp_mixer_b_in21,1,624,NaN,truck,bear,15,0624_lp_dnn_15_bear_10_n02134418_1978.png
mlp_mixer_b_in21,1,625,NaN,truck,cat,40,0625_lp_dnn_40_cat_10_n02123159_5872.png
mlp_mixer_b_in21,1,626,NaN,truck,keyboard,15,0626_lp_dnn_15_keyboard_10_n03085013_18797.png
mlp_mixer_b_in21,1,627,NaN,truck,airplane,15,0627_lp_dnn_15_airplane_10_n02690373_5496.png
mlp_mixer_b_in21,1,628,NaN,car,oven,15,0628_lp_dnn_15_oven_10_n04111531_21963.png
mlp_mixer_b_in21,1,629,NaN,elephant,bottle,0,0629_lp_dnn_0_bottle_10_n02823428_2918.png
mlp_mixer_b_in21,1,630,NaN,truck,keyboard,10,0630_lp_dnn_10_keyboard_10_n04505470_9570.png
mlp_mixer_b_in21,1,631,NaN,clock,bird,1,0631_lp_dnn_1_bird_10_n02002556_5977.png
mlp_mixer_b_in21,1,632,NaN,truck,airplane,40,0632_lp_dnn_40_airplane_10_n02690373_5961.png
mlp_mixer_b_in21,1,633,NaN,dog,clock,3,0633_lp_dnn_3_clock_10_n04548280_5765.png
mlp_mixer_b_in21,1,634,NaN,cat,cat,15,0634_lp_dnn_15_cat_10_n02123597_11940.png
mlp_mixer_b_in21,1,635,NaN,bird,airplane,3,0635_lp_dnn_3_airplane_10_n02690373_3993.png
mlp_mixer_b_in21,1,636,NaN,truck,chair,7,0636_lp_dnn_7_chair_10_n04099969_3984.png
mlp_mixer_b_in21,1,637,NaN,truck,airplane,3,0637_lp_dnn_3_airplane_10_n02690373_939.png
mlp_mixer_b_in21,1,638,NaN,bird,car,1,0638_lp_dnn_1_car_10_n02814533_48541.png
mlp_mixer_b_in21,1,639,NaN,truck,clock,10,0639_lp_dnn_10_clock_10_n03196217_3986.png
mlp_mixer_b_in21,1,640,NaN,bird,clock,7,0640_lp_dnn_7_clock_10_n03196217_3006.png
mlp_mixer_b_in21,1,641,NaN,truck,boat,40,0641_lp_dnn_40_boat_10_n03662601_8947.png
mlp_mixer_b_in21,1,642,NaN,oven,bear,40,0642_lp_dnn_40_bear_10_n02132136_14346.png
mlp_mixer_b_in21,1,643,NaN,truck,elephant,10,0643_lp_dnn_10_elephant_10_n02504458_3209.png
mlp_mixer_b_in21,1,644,NaN,bird,dog,3,0644_lp_dnn_3_dog_10_n02088364_4980.png
mlp_mixer_b_in21,1,645,NaN,dog,elephant,0,0645_lp_dnn_0_elephant_10_n02504013_1187.png
mlp_mixer_b_in21,1,646,NaN,oven,airplane,0,0646_lp_dnn_0_airplane_10_n02690373_20690.png
mlp_mixer_b_in21,1,647,NaN,truck,bird,10,0647_lp_dnn_10_bird_10_n01616318_2290.png
mlp_mixer_b_in21,1,648,NaN,dog,bird,1,0648_lp_dnn_1_bird_10_n02051845_1935.png
mlp_mixer_b_in21,1,649,NaN,chair,truck,0,0649_lp_dnn_0_truck_10_n04467665_19131.png
mlp_mixer_b_in21,1,650,NaN,truck,car,5,0650_lp_dnn_5_car_10_n03100240_2138.png
mlp_mixer_b_in21,1,651,NaN,cat,elephant,10,0651_lp_dnn_10_elephant_10_n02504458_5197.png
mlp_mixer_b_in21,1,652,NaN,bird,bird,5,0652_lp_dnn_5_bird_10_n01819313_5504.png
mlp_mixer_b_in21,1,653,NaN,oven,bird,3,0653_lp_dnn_3_bird_10_n01560419_1470.png
mlp_mixer_b_in21,1,654,NaN,bird,airplane,3,0654_lp_dnn_3_airplane_10_n02690373_8650.png
mlp_mixer_b_in21,1,655,NaN,truck,bird,40,0655_lp_dnn_40_bird_10_n02028035_1677.png
mlp_mixer_b_in21,1,656,NaN,bird,clock,1,0656_lp_dnn_1_clock_10_n04548280_9700.png
mlp_mixer_b_in21,1,657,NaN,dog,knife,5,0657_lp_dnn_5_knife_10_n03041632_5162.png
mlp_mixer_b_in21,1,658,NaN,bird,airplane,10,0658_lp_dnn_10_airplane_10_n02690373_13326.png
mlp_mixer_b_in21,1,659,NaN,clock,oven,3,0659_lp_dnn_3_oven_10_n04111531_857.png
mlp_mixer_b_in21,1,660,NaN,truck,bottle,40,0660_lp_dnn_40_bottle_10_n04560804_3392.png
mlp_mixer_b_in21,1,661,NaN,boat,airplane,0,0661_lp_dnn_0_airplane_10_n02690373_4269.png
mlp_mixer_b_in21,1,662,NaN,bird,bicycle,7,0662_lp_dnn_7_bicycle_10_n02835271_12608.png
mlp_mixer_b_in21,1,663,NaN,dog,elephant,1,0663_lp_dnn_1_elephant_10_n02504458_4868.png
mlp_mixer_b_in21,1,664,NaN,truck,chair,7,0664_lp_dnn_7_chair_10_n03376595_11572.png
mlp_mixer_b_in21,1,665,NaN,car,cat,10,0665_lp_dnn_10_cat_10_n02123045_1754.png
mlp_mixer_b_in21,1,666,NaN,bird,bottle,7,0666_lp_dnn_7_bottle_10_n04560804_2002.png
mlp_mixer_b_in21,1,667,NaN,bird,truck,5,0667_lp_dnn_5_truck_10_n03796401_4878.png
mlp_mixer_b_in21,1,668,NaN,truck,bird,40,0668_lp_dnn_40_bird_10_n02033041_4901.png
mlp_mixer_b_in21,1,669,NaN,truck,knife,40,0669_lp_dnn_40_knife_10_n03041632_31932.png
mlp_mixer_b_in21,1,670,NaN,bird,knife,3,0670_lp_dnn_3_knife_10_n03041632_9256.png
mlp_mixer_b_in21,1,671,NaN,bird,chair,5,0671_lp_dnn_5_chair_10_n04429376_45302.png
mlp_mixer_b_in21,1,672,NaN,truck,truck,3,0672_lp_dnn_3_truck_10_n03417042_5508.png
mlp_mixer_b_in21,1,673,NaN,car,chair,5,0673_lp_dnn_5_chair_10_n03376595_12326.png
mlp_mixer_b_in21,1,674,NaN,dog,clock,0,0674_lp_dnn_0_clock_10_n04548280_4391.png
mlp_mixer_b_in21,1,675,NaN,truck,car,10,0675_lp_dnn_10_car_10_n03100240_4421.png
mlp_mixer_b_in21,1,676,NaN,bird,dog,3,0676_lp_dnn_3_dog_10_n02111500_7233.png
mlp_mixer_b_in21,1,677,NaN,bird,bottle,1,0677_lp_dnn_1_bottle_10_n04591713_4232.png
mlp_mixer_b_in21,1,678,NaN,bird,airplane,1,0678_lp_dnn_1_airplane_10_n02690373_5010.png
mlp_mixer_b_in21,1,679,NaN,cat,bird,10,0679_lp_dnn_10_bird_10_n01860187_27046.png
mlp_mixer_b_in21,1,680,NaN,bird,car,10,0680_lp_dnn_10_car_10_n03100240_5136.png
mlp_mixer_b_in21,1,681,NaN,dog,knife,15,0681_lp_dnn_15_knife_10_n03041632_1884.png
mlp_mixer_b_in21,1,682,NaN,keyboard,clock,1,0682_lp_dnn_1_clock_10_n04548280_2809.png
mlp_mixer_b_in21,1,683,NaN,truck,boat,7,0683_lp_dnn_7_boat_10_n03662601_12308.png
mlp_mixer_b_in21,1,684,NaN,bird,airplane,10,0684_lp_dnn_10_airplane_10_n02690373_7432.png
mlp_mixer_b_in21,1,685,NaN,bird,bicycle,7,0685_lp_dnn_7_bicycle_10_n03792782_6149.png
mlp_mixer_b_in21,1,686,NaN,truck,chair,10,0686_lp_dnn_10_chair_10_n04429376_24716.png
mlp_mixer_b_in21,1,687,NaN,car,bottle,0,0687_lp_dnn_0_bottle_10_n04557648_376.png
mlp_mixer_b_in21,1,688,NaN,truck,cat,10,0688_lp_dnn_10_cat_10_n02123394_3144.png
mlp_mixer_b_in21,1,689,NaN,bird,dog,3,0689_lp_dnn_3_dog_10_n02092002_12007.png
mlp_mixer_b_in21,1,690,NaN,cat,bird,15,0690_lp_dnn_15_bird_10_n02028035_33583.png
mlp_mixer_b_in21,1,691,NaN,truck,bird,15,0691_lp_dnn_15_bird_10_n01797886_904.png
mlp_mixer_b_in21,1,692,NaN,bird,keyboard,15,0692_lp_dnn_15_keyboard_10_n03085013_21397.png
mlp_mixer_b_in21,1,693,NaN,truck,dog,40,0693_lp_dnn_40_dog_10_n02108915_11208.png
mlp_mixer_b_in21,1,694,NaN,bird,boat,3,0694_lp_dnn_3_boat_10_n03662601_17665.png
mlp_mixer_b_in21,1,695,NaN,car,clock,10,0695_lp_dnn_10_clock_10_n03196217_9160.png
mlp_mixer_b_in21,1,696,NaN,bird,dog,0,0696_lp_dnn_0_dog_10_n02100735_3595.png
mlp_mixer_b_in21,1,697,NaN,bird,truck,5,0697_lp_dnn_5_truck_10_n03796401_2656.png
mlp_mixer_b_in21,1,698,NaN,truck,truck,40,0698_lp_dnn_40_truck_10_n04467665_13193.png
mlp_mixer_b_in21,1,699,NaN,car,oven,5,0699_lp_dnn_5_oven_10_n04111531_20953.png
mlp_mixer_b_in21,1,700,NaN,bird,clock,5,0700_lp_dnn_5_clock_10_n02708093_8051.png
mlp_mixer_b_in21,1,701,NaN,bird,car,0,0701_lp_dnn_0_car_10_n03100240_11428.png
mlp_mixer_b_in21,1,702,NaN,bird,bicycle,1,0702_lp_dnn_1_bicycle_10_n02835271_12473.png
mlp_mixer_b_in21,1,703,NaN,truck,chair,10,0703_lp_dnn_10_chair_10_n02791124_6865.png
mlp_mixer_b_in21,1,704,NaN,cat,chair,15,0704_lp_dnn_15_chair_10_n03376595_4464.png
mlp_mixer_b_in21,1,705,NaN,dog,airplane,0,0705_lp_dnn_0_airplane_10_n02690373_1051.png
mlp_mixer_b_in21,1,706,NaN,bird,chair,5,0706_lp_dnn_5_chair_10_n04429376_5789.png
mlp_mixer_b_in21,1,707,NaN,car,bird,0,0707_lp_dnn_0_bird_10_n01592084_2971.png
mlp_mixer_b_in21,1,708,NaN,bird,bicycle,5,0708_lp_dnn_5_bicycle_10_n03792782_22760.png
mlp_mixer_b_in21,1,709,NaN,truck,airplane,40,0709_lp_dnn_40_airplane_10_n02690373_2656.png
mlp_mixer_b_in21,1,710,NaN,dog,oven,0,0710_lp_dnn_0_oven_10_n04111531_21173.png
mlp_mixer_b_in21,1,711,NaN,cat,bottle,3,0711_lp_dnn_3_bottle_10_n04557648_32252.png
mlp_mixer_b_in21,1,712,NaN,truck,cat,5,0712_lp_dnn_5_cat_10_n02123597_13835.png
mlp_mixer_b_in21,1,713,NaN,truck,knife,10,0713_lp_dnn_10_knife_10_n03041632_11969.png
mlp_mixer_b_in21,1,714,NaN,bird,cat,5,0714_lp_dnn_5_cat_10_n02125311_22884.png
mlp_mixer_b_in21,1,715,NaN,bird,bear,7,0715_lp_dnn_7_bear_10_n02134418_860.png
mlp_mixer_b_in21,1,716,NaN,bird,car,0,0716_lp_dnn_0_car_10_n03100240_1696.png
mlp_mixer_b_in21,1,717,NaN,truck,bird,7,0717_lp_dnn_7_bird_10_n02018207_1606.png
mlp_mixer_b_in21,1,718,NaN,truck,bird,40,0718_lp_dnn_40_bird_10_n02018795_4730.png
mlp_mixer_b_in21,1,719,NaN,clock,truck,10,0719_lp_dnn_10_truck_10_n04467665_67861.png
mlp_mixer_b_in21,1,720,NaN,bird,truck,1,0720_lp_dnn_1_truck_10_n03417042_820.png
mlp_mixer_b_in21,1,721,NaN,bird,elephant,7,0721_lp_dnn_7_elephant_10_n02504013_7774.png
mlp_mixer_b_in21,1,722,NaN,bird,boat,3,0722_lp_dnn_3_boat_10_n04273569_11445.png
mlp_mixer_b_in21,1,723,NaN,dog,elephant,0,0723_lp_dnn_0_elephant_10_n02504458_5482.png
mlp_mixer_b_in21,1,724,NaN,truck,clock,10,0724_lp_dnn_10_clock_10_n03196217_454.png
mlp_mixer_b_in21,1,725,NaN,oven,oven,40,0725_lp_dnn_40_oven_10_n04111531_17781.png
mlp_mixer_b_in21,1,726,NaN,truck,bottle,5,0726_lp_dnn_5_bottle_10_n02823428_4694.png
mlp_mixer_b_in21,1,727,NaN,bird,truck,3,0727_lp_dnn_3_truck_10_n03796401_24833.png
mlp_mixer_b_in21,1,728,NaN,bird,knife,1,0728_lp_dnn_1_knife_10_n03041632_81943.png
mlp_mixer_b_in21,1,729,NaN,truck,dog,10,0729_lp_dnn_10_dog_10_n02100735_1764.png
mlp_mixer_b_in21,1,730,NaN,cat,car,15,0730_lp_dnn_15_car_10_n02814533_36206.png
mlp_mixer_b_in21,1,731,NaN,bird,airplane,5,0731_lp_dnn_5_airplane_10_n02690373_7489.png
mlp_mixer_b_in21,1,732,NaN,clock,oven,10,0732_lp_dnn_10_oven_10_n04111531_3717.png
mlp_mixer_b_in21,1,733,NaN,truck,oven,7,0733_lp_dnn_7_oven_10_n04111531_2987.png
mlp_mixer_b_in21,1,734,NaN,cat,clock,0,0734_lp_dnn_0_clock_10_n04548280_2169.png
mlp_mixer_b_in21,1,735,NaN,truck,keyboard,40,0735_lp_dnn_40_keyboard_10_n03085013_19547.png
mlp_mixer_b_in21,1,736,NaN,bicycle,keyboard,1,0736_lp_dnn_1_keyboard_10_n03085013_20303.png
mlp_mixer_b_in21,1,737,NaN,dog,knife,5,0737_lp_dnn_5_knife_10_n03041632_12748.png
mlp_mixer_b_in21,1,738,NaN,bird,elephant,1,0738_lp_dnn_1_elephant_10_n02504458_1626.png
mlp_mixer_b_in21,1,739,NaN,truck,car,5,0739_lp_dnn_5_car_10_n02814533_82372.png
mlp_mixer_b_in21,1,740,NaN,bird,boat,1,0740_lp_dnn_1_boat_10_n03344393_5417.png
mlp_mixer_b_in21,1,741,NaN,elephant,bottle,0,0741_lp_dnn_0_bottle_10_n04591713_5465.png
mlp_mixer_b_in21,1,742,NaN,bird,keyboard,5,0742_lp_dnn_5_keyboard_10_n03085013_2594.png
mlp_mixer_b_in21,1,743,NaN,truck,car,7,0743_lp_dnn_7_car_10_n03100240_1406.png
mlp_mixer_b_in21,1,744,NaN,dog,cat,7,0744_lp_dnn_7_cat_10_n02123159_6954.png
mlp_mixer_b_in21,1,745,NaN,dog,bear,15,0745_lp_dnn_15_bear_10_n02134084_8601.png
mlp_mixer_b_in21,1,746,NaN,dog,cat,5,0746_lp_dnn_5_cat_10_n02123045_1126.png
mlp_mixer_b_in21,1,747,NaN,bird,car,7,0747_lp_dnn_7_car_10_n04285008_13094.png
mlp_mixer_b_in21,1,748,NaN,car,knife,0,0748_lp_dnn_0_knife_10_n03041632_11741.png
mlp_mixer_b_in21,1,749,NaN,bird,dog,5,0749_lp_dnn_5_dog_10_n02091635_7361.png
mlp_mixer_b_in21,1,750,NaN,car,dog,3,0750_lp_dnn_3_dog_10_n02113023_12640.png
mlp_mixer_b_in21,1,751,NaN,truck,chair,40,0751_lp_dnn_40_chair_10_n04099969_8018.png
mlp_mixer_b_in21,1,752,NaN,truck,clock,7,0752_lp_dnn_7_clock_10_n03196217_1272.png
mlp_mixer_b_in21,1,753,NaN,truck,knife,15,0753_lp_dnn_15_knife_10_n03041632_45264.png
mlp_mixer_b_in21,1,754,NaN,bird,keyboard,7,0754_lp_dnn_7_keyboard_10_n04505470_5150.png
mlp_mixer_b_in21,1,755,NaN,car,bear,10,0755_lp_dnn_10_bear_10_n02134418_745.png
mlp_mixer_b_in21,1,756,NaN,bird,cat,0,0756_lp_dnn_0_cat_10_n02124075_10310.png
mlp_mixer_b_in21,1,757,NaN,bird,bear,3,0757_lp_dnn_3_bear_10_n02134418_14961.png
mlp_mixer_b_in21,1,758,NaN,bird,chair,1,0758_lp_dnn_1_chair_10_n02791124_3883.png
mlp_mixer_b_in21,1,759,NaN,car,boat,3,0759_lp_dnn_3_boat_10_n02951358_33722.png
mlp_mixer_b_in21,1,760,NaN,bird,bottle,1,0760_lp_dnn_1_bottle_10_n04557648_12301.png
mlp_mixer_b_in21,1,761,NaN,dog,bear,3,0761_lp_dnn_3_bear_10_n02133161_1480.png
mlp_mixer_b_in21,1,762,NaN,dog,dog,1,0762_lp_dnn_1_dog_10_n02091467_3403.png
mlp_mixer_b_in21,1,763,NaN,truck,bear,40,0763_lp_dnn_40_bear_10_n02132136_25168.png
mlp_mixer_b_in21,1,764,NaN,dog,dog,5,0764_lp_dnn_5_dog_10_n02113023_8535.png
mlp_mixer_b_in21,1,765,NaN,bird,bicycle,0,0765_lp_dnn_0_bicycle_10_n03792782_6546.png
mlp_mixer_b_in21,1,766,NaN,cat,cat,3,0766_lp_dnn_3_cat_10_n02125311_6283.png
mlp_mixer_b_in21,1,767,NaN,truck,airplane,40,0767_lp_dnn_40_airplane_10_n02690373_9687.png
mlp_mixer_b_in21,1,768,NaN,truck,boat,0,0768_lp_dnn_0_boat_10_n03344393_3452.png
mlp_mixer_b_in21,1,769,NaN,bird,truck,1,0769_lp_dnn_1_truck_10_n03417042_12235.png
mlp_mixer_b_in21,1,770,NaN,dog,keyboard,15,0770_lp_dnn_15_keyboard_10_n04505470_1479.png
mlp_mixer_b_in21,1,771,NaN,keyboard,clock,10,0771_lp_dnn_10_clock_10_n02708093_6572.png
mlp_mixer_b_in21,1,772,NaN,clock,bird,5,0772_lp_dnn_5_bird_10_n02011460_19314.png
mlp_mixer_b_in21,1,773,NaN,truck,bird,5,0773_lp_dnn_5_bird_10_n02009229_3118.png
mlp_mixer_b_in21,1,774,NaN,clock,bear,5,0774_lp_dnn_5_bear_10_n02133161_5616.png
mlp_mixer_b_in21,1,775,NaN,cat,bicycle,10,0775_lp_dnn_10_bicycle_10_n03792782_62398.png
mlp_mixer_b_in21,1,776,NaN,cat,oven,1,0776_lp_dnn_1_oven_10_n04111531_9289.png
mlp_mixer_b_in21,1,777,NaN,dog,elephant,0,0777_lp_dnn_0_elephant_10_n02504013_3569.png
mlp_mixer_b_in21,1,778,NaN,bird,knife,7,0778_lp_dnn_7_knife_10_n03041632_2153.png
mlp_mixer_b_in21,1,779,NaN,bottle,oven,1,0779_lp_dnn_1_oven_10_n04111531_10313.png
mlp_mixer_b_in21,1,780,NaN,bird,elephant,7,0780_lp_dnn_7_elephant_10_n02504458_716.png
mlp_mixer_b_in21,1,781,NaN,cat,clock,5,0781_lp_dnn_5_clock_10_n04548280_1097.png
mlp_mixer_b_in21,1,782,NaN,truck,knife,15,0782_lp_dnn_15_knife_10_n03041632_40530.png
mlp_mixer_b_in21,1,783,NaN,bottle,truck,15,0783_lp_dnn_15_truck_10_n04467665_3125.png
mlp_mixer_b_in21,1,784,NaN,oven,oven,40,0784_lp_dnn_40_oven_10_n04111531_20823.png
mlp_mixer_b_in21,1,785,NaN,bird,bicycle,1,0785_lp_dnn_1_bicycle_10_n02835271_942.png
mlp_mixer_b_in21,1,786,NaN,cat,clock,10,0786_lp_dnn_10_clock_10_n02708093_321.png
mlp_mixer_b_in21,1,787,NaN,cat,car,7,0787_lp_dnn_7_car_10_n04285008_13156.png
mlp_mixer_b_in21,1,788,NaN,dog,car,15,0788_lp_dnn_15_car_10_n02814533_58708.png
mlp_mixer_b_in21,1,789,NaN,bird,keyboard,0,0789_lp_dnn_0_keyboard_10_n04505470_4599.png
mlp_mixer_b_in21,1,790,NaN,truck,airplane,3,0790_lp_dnn_3_airplane_10_n02690373_7200.png
mlp_mixer_b_in21,1,791,NaN,truck,airplane,7,0791_lp_dnn_7_airplane_10_n02690373_8789.png
mlp_mixer_b_in21,1,792,NaN,bird,oven,10,0792_lp_dnn_10_oven_10_n04111531_11634.png
mlp_mixer_b_in21,1,793,NaN,oven,cat,40,0793_lp_dnn_40_cat_10_n02123597_6542.png
mlp_mixer_b_in21,1,794,NaN,dog,bird,0,0794_lp_dnn_0_bird_10_n01833805_5839.png
mlp_mixer_b_in21,1,795,NaN,chair,cat,1,0795_lp_dnn_1_cat_10_n02125311_22037.png
mlp_mixer_b_in21,1,796,NaN,dog,elephant,7,0796_lp_dnn_7_elephant_10_n02504458_4838.png
mlp_mixer_b_in21,1,797,NaN,bird,bear,7,0797_lp_dnn_7_bear_10_n02134418_826.png
mlp_mixer_b_in21,1,798,NaN,bird,truck,7,0798_lp_dnn_7_truck_10_n03417042_16856.png
mlp_mixer_b_in21,1,799,NaN,bird,bird,10,0799_lp_dnn_10_bird_10_n02013706_10026.png
mlp_mixer_b_in21,1,800,NaN,cat,bottle,3,0800_lp_dnn_3_bottle_10_n02823428_7650.png
mlp_mixer_b_in21,1,801,NaN,cat,dog,7,0801_lp_dnn_7_dog_10_n02088238_3078.png
mlp_mixer_b_in21,1,802,NaN,car,oven,10,0802_lp_dnn_10_oven_10_n04111531_24096.png
mlp_mixer_b_in21,1,803,NaN,truck,boat,15,0803_lp_dnn_15_boat_10_n02951358_29341.png
mlp_mixer_b_in21,1,804,NaN,bird,truck,7,0804_lp_dnn_7_truck_10_n04467665_9521.png
mlp_mixer_b_in21,1,805,NaN,truck,chair,10,0805_lp_dnn_10_chair_10_n04429376_6308.png
mlp_mixer_b_in21,1,806,NaN,dog,bicycle,5,0806_lp_dnn_5_bicycle_10_n02835271_10814.png
mlp_mixer_b_in21,1,807,NaN,bird,bicycle,5,0807_lp_dnn_5_bicycle_10_n02835271_13439.png
mlp_mixer_b_in21,1,808,NaN,bird,airplane,1,0808_lp_dnn_1_airplane_10_n02690373_4079.png
mlp_mixer_b_in21,1,809,NaN,bird,chair,7,0809_lp_dnn_7_chair_10_n03376595_3499.png
mlp_mixer_b_in21,1,810,NaN,truck,bicycle,10,0810_lp_dnn_10_bicycle_10_n03792782_16290.png
mlp_mixer_b_in21,1,811,NaN,bird,bottle,0,0811_lp_dnn_0_bottle_10_n03983396_16224.png
mlp_mixer_b_in21,1,812,NaN,bird,truck,1,0812_lp_dnn_1_truck_10_n03417042_20591.png
mlp_mixer_b_in21,1,813,NaN,truck,cat,15,0813_lp_dnn_15_cat_10_n02123394_5909.png
mlp_mixer_b_in21,1,814,NaN,cat,chair,7,0814_lp_dnn_7_chair_10_n02791124_6276.png
mlp_mixer_b_in21,1,815,NaN,truck,bear,10,0815_lp_dnn_10_bear_10_n02133161_396.png
mlp_mixer_b_in21,1,816,NaN,truck,bottle,7,0816_lp_dnn_7_bottle_10_n03983396_6011.png
mlp_mixer_b_in21,1,817,NaN,truck,chair,10,0817_lp_dnn_10_chair_10_n03376595_1798.png
mlp_mixer_b_in21,1,818,NaN,dog,bird,7,0818_lp_dnn_7_bird_10_n01601694_10927.png
mlp_mixer_b_in21,1,819,NaN,truck,clock,40,0819_lp_dnn_40_clock_10_n03196217_634.png
mlp_mixer_b_in21,1,820,NaN,truck,clock,10,0820_lp_dnn_10_clock_10_n03196217_2695.png
mlp_mixer_b_in21,1,821,NaN,oven,dog,40,0821_lp_dnn_40_dog_10_n02110627_22484.png
mlp_mixer_b_in21,1,822,NaN,cat,bottle,3,0822_lp_dnn_3_bottle_10_n04591713_5019.png
mlp_mixer_b_in21,1,823,NaN,cat,bottle,10,0823_lp_dnn_10_bottle_10_n02823428_3788.png
mlp_mixer_b_in21,1,824,NaN,dog,bear,1,0824_lp_dnn_1_bear_10_n02133161_1356.png
mlp_mixer_b_in21,1,825,NaN,oven,car,15,0825_lp_dnn_15_car_10_n04285008_11714.png
mlp_mixer_b_in21,1,826,NaN,truck,truck,1,0826_lp_dnn_1_truck_10_n03417042_5768.png
mlp_mixer_b_in21,1,827,NaN,dog,dog,40,0827_lp_dnn_40_dog_10_n02113712_4014.png
mlp_mixer_b_in21,1,828,NaN,dog,cat,1,0828_lp_dnn_1_cat_10_n02124075_7579.png
mlp_mixer_b_in21,1,829,NaN,oven,airplane,1,0829_lp_dnn_1_airplane_10_n02690373_7944.png
mlp_mixer_b_in21,1,830,NaN,truck,boat,40,0830_lp_dnn_40_boat_10_n03344393_2599.png
mlp_mixer_b_in21,1,831,NaN,bird,dog,5,0831_lp_dnn_5_dog_10_n02093256_6258.png
mlp_mixer_b_in21,1,832,NaN,truck,elephant,10,0832_lp_dnn_10_elephant_10_n02504458_3648.png
mlp_mixer_b_in21,1,833,NaN,car,truck,40,0833_lp_dnn_40_truck_10_n03796401_9.png
mlp_mixer_b_in21,1,834,NaN,car,bottle,40,0834_lp_dnn_40_bottle_10_n03937543_5254.png
mlp_mixer_b_in21,1,835,NaN,chair,chair,3,0835_lp_dnn_3_chair_10_n04429376_16952.png
mlp_mixer_b_in21,1,836,NaN,dog,dog,1,0836_lp_dnn_1_dog_10_n02113624_8023.png
mlp_mixer_b_in21,1,837,NaN,truck,keyboard,40,0837_lp_dnn_40_keyboard_10_n03085013_21507.png
mlp_mixer_b_in21,1,838,NaN,bird,airplane,0,0838_lp_dnn_0_airplane_10_n02690373_9401.png
mlp_mixer_b_in21,1,839,NaN,chair,truck,0,0839_lp_dnn_0_truck_10_n03417042_22918.png
mlp_mixer_b_in21,1,840,NaN,clock,bottle,15,0840_lp_dnn_15_bottle_10_n03937543_5678.png
mlp_mixer_b_in21,1,841,NaN,bird,cat,7,0841_lp_dnn_7_cat_10_n02123045_9184.png
mlp_mixer_b_in21,1,842,NaN,dog,elephant,0,0842_lp_dnn_0_elephant_10_n02504458_908.png
mlp_mixer_b_in21,1,843,NaN,cat,bird,10,0843_lp_dnn_10_bird_10_n01532829_14545.png
mlp_mixer_b_in21,1,844,NaN,dog,bear,3,0844_lp_dnn_3_bear_10_n02134084_17875.png
mlp_mixer_b_in21,1,845,NaN,truck,airplane,40,0845_lp_dnn_40_airplane_10_n02690373_1279.png
mlp_mixer_b_in21,1,846,NaN,truck,car,7,0846_lp_dnn_7_car_10_n02814533_3594.png
mlp_mixer_b_in21,1,847,NaN,dog,oven,7,0847_lp_dnn_7_oven_10_n04111531_9702.png
mlp_mixer_b_in21,1,848,NaN,bird,bicycle,1,0848_lp_dnn_1_bicycle_10_n03792782_51466.png
mlp_mixer_b_in21,1,849,NaN,cat,knife,15,0849_lp_dnn_15_knife_10_n03041632_1964.png
mlp_mixer_b_in21,1,850,NaN,elephant,bicycle,7,0850_lp_dnn_7_bicycle_10_n02835271_7426.png
mlp_mixer_b_in21,1,851,NaN,truck,keyboard,15,0851_lp_dnn_15_keyboard_10_n03085013_12079.png
mlp_mixer_b_in21,1,852,NaN,truck,bicycle,10,0852_lp_dnn_10_bicycle_10_n03792782_22620.png
mlp_mixer_b_in21,1,853,NaN,oven,chair,40,0853_lp_dnn_40_chair_10_n04429376_6817.png
mlp_mixer_b_in21,1,854,NaN,bird,bottle,5,0854_lp_dnn_5_bottle_10_n04560804_2176.png
mlp_mixer_b_in21,1,855,NaN,oven,dog,40,0855_lp_dnn_40_dog_10_n02100583_14082.png
mlp_mixer_b_in21,1,856,NaN,truck,airplane,15,0856_lp_dnn_15_airplane_10_n02690373_2521.png
mlp_mixer_b_in21,1,857,NaN,bird,bicycle,3,0857_lp_dnn_3_bicycle_10_n02835271_22355.png
mlp_mixer_b_in21,1,858,NaN,elephant,bear,7,0858_lp_dnn_7_bear_10_n02134418_5326.png
mlp_mixer_b_in21,1,859,NaN,truck,bottle,5,0859_lp_dnn_5_bottle_10_n03983396_8164.png
mlp_mixer_b_in21,1,860,NaN,keyboard,keyboard,1,0860_lp_dnn_1_keyboard_10_n03085013_21097.png
mlp_mixer_b_in21,1,861,NaN,bird,elephant,0,0861_lp_dnn_0_elephant_10_n02504458_6835.png
mlp_mixer_b_in21,1,862,NaN,truck,knife,10,0862_lp_dnn_10_knife_10_n03041632_55711.png
mlp_mixer_b_in21,1,863,NaN,dog,truck,15,0863_lp_dnn_15_truck_10_n03417042_3592.png
mlp_mixer_b_in21,1,864,NaN,bird,dog,7,0864_lp_dnn_7_dog_10_n02110806_23139.png
mlp_mixer_b_in21,1,865,NaN,cat,clock,40,0865_lp_dnn_40_clock_10_n02708093_8141.png
mlp_mixer_b_in21,1,866,NaN,car,oven,0,0866_lp_dnn_0_oven_10_n04111531_1612.png
mlp_mixer_b_in21,1,867,NaN,bird,bird,3,0867_lp_dnn_3_bird_10_n01820546_5444.png
mlp_mixer_b_in21,1,868,NaN,bird,car,1,0868_lp_dnn_1_car_10_n02814533_43868.png
mlp_mixer_b_in21,1,869,NaN,truck,elephant,15,0869_lp_dnn_15_elephant_10_n02504013_9393.png
mlp_mixer_b_in21,1,870,NaN,truck,car,40,0870_lp_dnn_40_car_10_n03100240_2042.png
mlp_mixer_b_in21,1,871,NaN,truck,truck,40,0871_lp_dnn_40_truck_10_n03417042_21758.png
mlp_mixer_b_in21,1,872,NaN,dog,bear,0,0872_lp_dnn_0_bear_10_n02134418_5581.png
mlp_mixer_b_in21,1,873,NaN,truck,boat,40,0873_lp_dnn_40_boat_10_n04273569_5811.png
mlp_mixer_b_in21,1,874,NaN,dog,bottle,5,0874_lp_dnn_5_bottle_10_n04557648_9493.png
mlp_mixer_b_in21,1,875,NaN,bear,elephant,5,0875_lp_dnn_5_elephant_10_n02504013_22704.png
mlp_mixer_b_in21,1,876,NaN,truck,car,5,0876_lp_dnn_5_car_10_n02814533_9634.png
mlp_mixer_b_in21,1,877,NaN,bird,bottle,5,0877_lp_dnn_5_bottle_10_n04560804_12411.png
mlp_mixer_b_in21,1,878,NaN,dog,dog,3,0878_lp_dnn_3_dog_10_n02112018_6635.png
mlp_mixer_b_in21,1,879,NaN,truck,dog,40,0879_lp_dnn_40_dog_10_n02106662_56458.png
mlp_mixer_b_in21,1,880,NaN,bird,oven,1,0880_lp_dnn_1_oven_10_n04111531_3072.png
mlp_mixer_b_in21,1,881,NaN,bird,knife,7,0881_lp_dnn_7_knife_10_n03041632_50423.png
mlp_mixer_b_in21,1,882,NaN,truck,cat,7,0882_lp_dnn_7_cat_10_n02123394_4232.png
mlp_mixer_b_in21,1,883,NaN,dog,oven,40,0883_lp_dnn_40_oven_10_n04111531_21366.png
mlp_mixer_b_in21,1,884,NaN,cat,oven,15,0884_lp_dnn_15_oven_10_n04111531_92.png
mlp_mixer_b_in21,1,885,NaN,chair,truck,1,0885_lp_dnn_1_truck_10_n03417042_18554.png
mlp_mixer_b_in21,1,886,NaN,truck,knife,10,0886_lp_dnn_10_knife_10_n03041632_95293.png
mlp_mixer_b_in21,1,887,NaN,bird,clock,3,0887_lp_dnn_3_clock_10_n04548280_5422.png
mlp_mixer_b_in21,1,888,NaN,truck,bottle,15,0888_lp_dnn_15_bottle_10_n03937543_5512.png
mlp_mixer_b_in21,1,889,NaN,truck,chair,40,0889_lp_dnn_40_chair_10_n04099969_20107.png
mlp_mixer_b_in21,1,890,NaN,cat,oven,10,0890_lp_dnn_10_oven_10_n04111531_538.png
mlp_mixer_b_in21,1,891,NaN,car,bird,1,0891_lp_dnn_1_bird_10_n01820546_4609.png
mlp_mixer_b_in21,1,892,NaN,bird,oven,3,0892_lp_dnn_3_oven_10_n04111531_5204.png
mlp_mixer_b_in21,1,893,NaN,oven,bottle,7,0893_lp_dnn_7_bottle_10_n02823428_2355.png
mlp_mixer_b_in21,1,894,NaN,bird,elephant,5,0894_lp_dnn_5_elephant_10_n02504458_3059.png
mlp_mixer_b_in21,1,895,NaN,cat,knife,15,0895_lp_dnn_15_knife_10_n03041632_24326.png
mlp_mixer_b_in21,1,896,NaN,truck,truck,10,0896_lp_dnn_10_truck_10_n04467665_7975.png
mlp_mixer_b_in21,1,897,NaN,cat,boat,7,0897_lp_dnn_7_boat_10_n02951358_4551.png
mlp_mixer_b_in21,1,898,NaN,truck,dog,15,0898_lp_dnn_15_dog_10_n02107312_5733.png
mlp_mixer_b_in21,1,899,NaN,bird,bear,3,0899_lp_dnn_3_bear_10_n02132136_15407.png
mlp_mixer_b_in21,1,900,NaN,truck,bicycle,40,0900_lp_dnn_40_bicycle_10_n03792782_11851.png
mlp_mixer_b_in21,1,901,NaN,clock,chair,0,0901_lp_dnn_0_chair_10_n04099969_8032.png
mlp_mixer_b_in21,1,902,NaN,bird,bear,0,0902_lp_dnn_0_bear_10_n02134418_3952.png
mlp_mixer_b_in21,1,903,NaN,truck,bottle,5,0903_lp_dnn_5_bottle_10_n04591713_3495.png
mlp_mixer_b_in21,1,904,NaN,bird,chair,1,0904_lp_dnn_1_chair_10_n03376595_6942.png
mlp_mixer_b_in21,1,905,NaN,cat,chair,15,0905_lp_dnn_15_chair_10_n02791124_634.png
mlp_mixer_b_in21,1,906,NaN,dog,car,40,0906_lp_dnn_40_car_10_n04285008_14573.png
mlp_mixer_b_in21,1,907,NaN,oven,oven,40,0907_lp_dnn_40_oven_10_n04111531_13625.png
mlp_mixer_b_in21,1,908,NaN,cat,knife,7,0908_lp_dnn_7_knife_10_n03041632_49513.png
mlp_mixer_b_in21,1,909,NaN,truck,car,15,0909_lp_dnn_15_car_10_n03100240_5383.png
mlp_mixer_b_in21,1,910,NaN,dog,clock,3,0910_lp_dnn_3_clock_10_n04548280_289.png
mlp_mixer_b_in21,1,911,NaN,bird,elephant,3,0911_lp_dnn_3_elephant_10_n02504013_9021.png
mlp_mixer_b_in21,1,912,NaN,truck,elephant,15,0912_lp_dnn_15_elephant_10_n02504458_7477.png
mlp_mixer_b_in21,1,913,NaN,dog,cat,5,0913_lp_dnn_5_cat_10_n02125311_39208.png
mlp_mixer_b_in21,1,914,NaN,bird,boat,0,0914_lp_dnn_0_boat_10_n03662601_1947.png
mlp_mixer_b_in21,1,915,NaN,bird,knife,10,0915_lp_dnn_10_knife_10_n03041632_93026.png
mlp_mixer_b_in21,1,916,NaN,keyboard,bicycle,7,0916_lp_dnn_7_bicycle_10_n03792782_11950.png
mlp_mixer_b_in21,1,917,NaN,dog,bicycle,40,0917_lp_dnn_40_bicycle_10_n03792782_1868.png
mlp_mixer_b_in21,1,918,NaN,truck,knife,3,0918_lp_dnn_3_knife_10_n03041632_12949.png
mlp_mixer_b_in21,1,919,NaN,bird,car,3,0919_lp_dnn_3_car_10_n02814533_3202.png
mlp_mixer_b_in21,1,920,NaN,truck,bottle,7,0920_lp_dnn_7_bottle_10_n02823428_7630.png
mlp_mixer_b_in21,1,921,NaN,clock,knife,7,0921_lp_dnn_7_knife_10_n03041632_45326.png
mlp_mixer_b_in21,1,922,NaN,chair,car,0,0922_lp_dnn_0_car_10_n02814533_27571.png
mlp_mixer_b_in21,1,923,NaN,truck,keyboard,10,0923_lp_dnn_10_keyboard_10_n03085013_5542.png
mlp_mixer_b_in21,1,924,NaN,dog,bear,40,0924_lp_dnn_40_bear_10_n02134084_12428.png
mlp_mixer_b_in21,1,925,NaN,oven,keyboard,1,0925_lp_dnn_1_keyboard_10_n04505470_5112.png
mlp_mixer_b_in21,1,926,NaN,truck,elephant,10,0926_lp_dnn_10_elephant_10_n02504458_11265.png
mlp_mixer_b_in21,1,927,NaN,bird,bicycle,0,0927_lp_dnn_0_bicycle_10_n02835271_12674.png
mlp_mixer_b_in21,1,928,NaN,bird,keyboard,3,0928_lp_dnn_3_keyboard_10_n04505470_5091.png
mlp_mixer_b_in21,1,929,NaN,bird,boat,7,0929_lp_dnn_7_boat_10_n03344393_3921.png
mlp_mixer_b_in21,1,930,NaN,dog,boat,0,0930_lp_dnn_0_boat_10_n02951358_15479.png
mlp_mixer_b_in21,1,931,NaN,cat,clock,7,0931_lp_dnn_7_clock_10_n04548280_4069.png
mlp_mixer_b_in21,1,932,NaN,cat,truck,15,0932_lp_dnn_15_truck_10_n03796401_25386.png
mlp_mixer_b_in21,1,933,NaN,dog,cat,0,0933_lp_dnn_0_cat_10_n02125311_35785.png
mlp_mixer_b_in21,1,934,NaN,bottle,keyboard,15,0934_lp_dnn_15_keyboard_10_n03085013_22496.png
mlp_mixer_b_in21,1,935,NaN,truck,oven,15,0935_lp_dnn_15_oven_10_n04111531_11530.png
mlp_mixer_b_in21,1,936,NaN,car,elephant,3,0936_lp_dnn_3_elephant_10_n02504013_1502.png
mlp_mixer_b_in21,1,937,NaN,bird,car,5,0937_lp_dnn_5_car_10_n04285008_2880.png
mlp_mixer_b_in21,1,938,NaN,cat,car,15,0938_lp_dnn_15_car_10_n04285008_9107.png
mlp_mixer_b_in21,1,939,NaN,bird,elephant,10,0939_lp_dnn_10_elephant_10_n02504013_3197.png
mlp_mixer_b_in21,1,940,NaN,bird,boat,0,0940_lp_dnn_0_boat_10_n03344393_8599.png
mlp_mixer_b_in21,1,941,NaN,truck,airplane,5,0941_lp_dnn_5_airplane_10_n02690373_6543.png
mlp_mixer_b_in21,1,942,NaN,bird,chair,5,0942_lp_dnn_5_chair_10_n04429376_1935.png
mlp_mixer_b_in21,1,943,NaN,truck,chair,15,0943_lp_dnn_15_chair_10_n04429376_24434.png
mlp_mixer_b_in21,1,944,NaN,bird,chair,3,0944_lp_dnn_3_chair_10_n04099969_5584.png
mlp_mixer_b_in21,1,945,NaN,truck,car,3,0945_lp_dnn_3_car_10_n02814533_44079.png
mlp_mixer_b_in21,1,946,NaN,truck,clock,15,0946_lp_dnn_15_clock_10_n04548280_8892.png
mlp_mixer_b_in21,1,947,NaN,bottle,chair,15,0947_lp_dnn_15_chair_10_n04429376_7123.png
mlp_mixer_b_in21,1,948,NaN,dog,bear,1,0948_lp_dnn_1_bear_10_n02133161_11333.png
mlp_mixer_b_in21,1,949,NaN,chair,dog,1,0949_lp_dnn_1_dog_10_n02097298_6466.png
mlp_mixer_b_in21,1,950,NaN,oven,chair,40,0950_lp_dnn_40_chair_10_n03376595_1740.png
mlp_mixer_b_in21,1,951,NaN,bird,bicycle,1,0951_lp_dnn_1_bicycle_10_n02835271_20920.png
mlp_mixer_b_in21,1,952,NaN,bird,bottle,0,0952_lp_dnn_0_bottle_10_n02823428_40.png
mlp_mixer_b_in21,1,953,NaN,chair,chair,5,0953_lp_dnn_5_chair_10_n02791124_3731.png
mlp_mixer_b_in21,1,954,NaN,bird,clock,7,0954_lp_dnn_7_clock_10_n03196217_10578.png
mlp_mixer_b_in21,1,955,NaN,bird,airplane,0,0955_lp_dnn_0_airplane_10_n02690373_181.png
mlp_mixer_b_in21,1,956,NaN,truck,airplane,1,0956_lp_dnn_1_airplane_10_n02690373_5266.png
mlp_mixer_b_in21,1,957,NaN,clock,dog,15,0957_lp_dnn_15_dog_10_n02101388_20966.png
mlp_mixer_b_in21,1,958,NaN,bird,truck,5,0958_lp_dnn_5_truck_10_n04467665_79452.png
mlp_mixer_b_in21,1,959,NaN,bird,boat,3,0959_lp_dnn_3_boat_10_n02951358_406.png
mlp_mixer_b_in21,1,960,NaN,bird,truck,1,0960_lp_dnn_1_truck_10_n03796401_2866.png
mlp_mixer_b_in21,1,961,NaN,car,chair,7,0961_lp_dnn_7_chair_10_n03376595_3181.png
mlp_mixer_b_in21,1,962,NaN,clock,bird,7,0962_lp_dnn_7_bird_10_n01820546_1222.png
mlp_mixer_b_in21,1,963,NaN,bird,bear,1,0963_lp_dnn_1_bear_10_n02133161_195.png
mlp_mixer_b_in21,1,964,NaN,bird,truck,0,0964_lp_dnn_0_truck_10_n03417042_4557.png
mlp_mixer_b_in21,1,965,NaN,cat,knife,15,0965_lp_dnn_15_knife_10_n03041632_28443.png
mlp_mixer_b_in21,1,966,NaN,bird,chair,7,0966_lp_dnn_7_chair_10_n04099969_12456.png
mlp_mixer_b_in21,1,967,NaN,bird,keyboard,1,0967_lp_dnn_1_keyboard_10_n03085013_20914.png
mlp_mixer_b_in21,1,968,NaN,bird,truck,7,0968_lp_dnn_7_truck_10_n03796401_7527.png
mlp_mixer_b_in21,1,969,NaN,dog,keyboard,40,0969_lp_dnn_40_keyboard_10_n04505470_4492.png
mlp_mixer_b_in21,1,970,NaN,truck,keyboard,10,0970_lp_dnn_10_keyboard_10_n03085013_7285.png
mlp_mixer_b_in21,1,971,NaN,truck,bird,0,0971_lp_dnn_0_bird_10_n01855672_15005.png
mlp_mixer_b_in21,1,972,NaN,bird,bear,5,0972_lp_dnn_5_bear_10_n02132136_24311.png
mlp_mixer_b_in21,1,973,NaN,car,chair,0,0973_lp_dnn_0_chair_10_n03376595_6107.png
mlp_mixer_b_in21,1,974,NaN,bird,knife,7,0974_lp_dnn_7_knife_10_n03041632_992.png
mlp_mixer_b_in21,1,975,NaN,bicycle,clock,5,0975_lp_dnn_5_clock_10_n04548280_4557.png
mlp_mixer_b_in21,1,976,NaN,truck,boat,7,0976_lp_dnn_7_boat_10_n02951358_2685.png
mlp_mixer_b_in21,1,977,NaN,chair,oven,3,0977_lp_dnn_3_oven_10_n04111531_4370.png
mlp_mixer_b_in21,1,978,NaN,dog,elephant,5,0978_lp_dnn_5_elephant_10_n02504013_4424.png
mlp_mixer_b_in21,1,979,NaN,clock,dog,7,0979_lp_dnn_7_dog_10_n02098105_2343.png
mlp_mixer_b_in21,1,980,NaN,dog,keyboard,3,0980_lp_dnn_3_keyboard_10_n03085013_18841.png
mlp_mixer_b_in21,1,981,NaN,dog,airplane,0,0981_lp_dnn_0_airplane_10_n02690373_1386.png
mlp_mixer_b_in21,1,982,NaN,elephant,knife,10,0982_lp_dnn_10_knife_10_n03041632_6309.png
mlp_mixer_b_in21,1,983,NaN,keyboard,chair,3,0983_lp_dnn_3_chair_10_n04429376_57621.png
mlp_mixer_b_in21,1,984,NaN,boat,airplane,7,0984_lp_dnn_7_airplane_10_n02690373_9533.png
mlp_mixer_b_in21,1,985,NaN,truck,airplane,15,0985_lp_dnn_15_airplane_10_n02690373_848.png
mlp_mixer_b_in21,1,986,NaN,bottle,cat,15,0986_lp_dnn_15_cat_10_n02123159_737.png
mlp_mixer_b_in21,1,987,NaN,bottle,clock,5,0987_lp_dnn_5_clock_10_n02708093_1794.png
mlp_mixer_b_in21,1,988,NaN,dog,dog,15,0988_lp_dnn_15_dog_10_n02108915_1114.png
mlp_mixer_b_in21,1,989,NaN,dog,elephant,3,0989_lp_dnn_3_elephant_10_n02504013_1813.png
mlp_mixer_b_in21,1,990,NaN,dog,bird,3,0990_lp_dnn_3_bird_10_n01855032_8133.png
mlp_mixer_b_in21,1,991,NaN,bird,oven,1,0991_lp_dnn_1_oven_10_n04111531_15629.png
mlp_mixer_b_in21,1,992,NaN,truck,clock,5,0992_lp_dnn_5_clock_10_n03196217_743.png
mlp_mixer_b_in21,1,993,NaN,bird,bicycle,1,0993_lp_dnn_1_bicycle_10_n03792782_22416.png
mlp_mixer_b_in21,1,994,NaN,oven,bird,40,0994_lp_dnn_40_bird_10_n01514859_11682.png
mlp_mixer_b_in21,1,995,NaN,truck,dog,40,0995_lp_dnn_40_dog_10_n02105162_2662.png
mlp_mixer_b_in21,1,996,NaN,bottle,bicycle,15,0996_lp_dnn_15_bicycle_10_n03792782_54350.png
mlp_mixer_b_in21,1,997,NaN,keyboard,keyboard,1,0997_lp_dnn_1_keyboard_10_n03085013_23697.png
mlp_mixer_b_in21,1,998,NaN,truck,bottle,10,0998_lp_dnn_10_bottle_10_n02823428_4983.png
mlp_mixer_b_in21,1,999,NaN,dog,bottle,5,0999_lp_dnn_5_bottle_10_n03937543_339.png
mlp_mixer_b_in21,1,1000,NaN,elephant,truck,7,1000_lp_dnn_7_truck_10_n03417042_28773.png
mlp_mixer_b_in21,1,1001,NaN,cat,truck,15,1001_lp_dnn_15_truck_10_n03417042_10229.png
mlp_mixer_b_in21,1,1002,NaN,elephant,keyboard,7,1002_lp_dnn_7_keyboard_10_n03085013_22942.png
mlp_mixer_b_in21,1,1003,NaN,truck,knife,40,1003_lp_dnn_40_knife_10_n03041632_29827.png
mlp_mixer_b_in21,1,1004,NaN,bird,bicycle,1,1004_lp_dnn_1_bicycle_10_n02835271_14235.png
mlp_mixer_b_in21,1,1005,NaN,oven,bottle,40,1005_lp_dnn_40_bottle_10_n04557648_2002.png
mlp_mixer_b_in21,1,1006,NaN,dog,knife,40,1006_lp_dnn_40_knife_10_n03041632_32459.png
mlp_mixer_b_in21,1,1007,NaN,truck,bear,7,1007_lp_dnn_7_bear_10_n02133161_14810.png
mlp_mixer_b_in21,1,1008,NaN,truck,bear,10,1008_lp_dnn_10_bear_10_n02133161_5106.png
mlp_mixer_b_in21,1,1009,NaN,truck,truck,3,1009_lp_dnn_3_truck_10_n03417042_6272.png
mlp_mixer_b_in21,1,1010,NaN,bottle,elephant,10,1010_lp_dnn_10_elephant_10_n02504458_5379.png
mlp_mixer_b_in21,1,1011,NaN,bird,truck,5,1011_lp_dnn_5_truck_10_n04467665_30023.png
mlp_mixer_b_in21,1,1012,NaN,bird,elephant,5,1012_lp_dnn_5_elephant_10_n02504458_10013.png
mlp_mixer_b_in21,1,1013,NaN,chair,clock,40,1013_lp_dnn_40_clock_10_n04548280_4143.png
mlp_mixer_b_in21,1,1014,NaN,cat,bicycle,7,1014_lp_dnn_7_bicycle_10_n02835271_2900.png
mlp_mixer_b_in21,1,1015,NaN,bird,elephant,5,1015_lp_dnn_5_elephant_10_n02504013_2974.png
mlp_mixer_b_in21,1,1016,NaN,truck,cat,15,1016_lp_dnn_15_cat_10_n02123045_20570.png
mlp_mixer_b_in21,1,1017,NaN,bird,boat,3,1017_lp_dnn_3_boat_10_n03662601_14478.png
mlp_mixer_b_in21,1,1018,NaN,truck,bird,10,1018_lp_dnn_10_bird_10_n02002556_5829.png
mlp_mixer_b_in21,1,1019,NaN,car,bottle,0,1019_lp_dnn_0_bottle_10_n04591713_6235.png
mlp_mixer_b_in21,1,1020,NaN,oven,car,0,1020_lp_dnn_0_car_10_n02814533_10069.png
mlp_mixer_b_in21,1,1021,NaN,dog,bear,1,1021_lp_dnn_1_bear_10_n02134418_3383.png
mlp_mixer_b_in21,1,1022,NaN,cat,bear,15,1022_lp_dnn_15_bear_10_n02134418_5777.png
mlp_mixer_b_in21,1,1023,NaN,bird,knife,0,1023_lp_dnn_0_knife_10_n03041632_32337.png
mlp_mixer_b_in21,1,1024,NaN,truck,truck,10,1024_lp_dnn_10_truck_10_n03417042_12308.png
mlp_mixer_b_in21,1,1025,NaN,truck,car,10,1025_lp_dnn_10_car_10_n03100240_8670.png
mlp_mixer_b_in21,1,1026,NaN,bird,car,3,1026_lp_dnn_3_car_10_n03100240_7836.png
mlp_mixer_b_in21,1,1027,NaN,truck,bear,15,1027_lp_dnn_15_bear_10_n02133161_1372.png
mlp_mixer_b_in21,1,1028,NaN,car,elephant,40,1028_lp_dnn_40_elephant_10_n02504013_19419.png
mlp_mixer_b_in21,1,1029,NaN,truck,cat,10,1029_lp_dnn_10_cat_10_n02123597_3828.png
mlp_mixer_b_in21,1,1030,NaN,bottle,keyboard,0,1030_lp_dnn_0_keyboard_10_n03085013_8865.png
mlp_mixer_b_in21,1,1031,NaN,dog,knife,40,1031_lp_dnn_40_knife_10_n03041632_23678.png
mlp_mixer_b_in21,1,1032,NaN,truck,truck,1,1032_lp_dnn_1_truck_10_n03417042_9480.png
mlp_mixer_b_in21,1,1033,NaN,dog,elephant,1,1033_lp_dnn_1_elephant_10_n02504458_5766.png
mlp_mixer_b_in21,1,1034,NaN,truck,bird,10,1034_lp_dnn_10_bird_10_n02006656_11017.png
mlp_mixer_b_in21,1,1035,NaN,dog,truck,7,1035_lp_dnn_7_truck_10_n03417042_17545.png
mlp_mixer_b_in21,1,1036,NaN,cat,knife,15,1036_lp_dnn_15_knife_10_n03041632_52848.png
mlp_mixer_b_in21,1,1037,NaN,bird,dog,0,1037_lp_dnn_0_dog_10_n02088094_3274.png
mlp_mixer_b_in21,1,1038,NaN,truck,bottle,1,1038_lp_dnn_1_bottle_10_n04591713_360.png
mlp_mixer_b_in21,1,1039,NaN,bird,chair,0,1039_lp_dnn_0_chair_10_n02791124_13033.png
mlp_mixer_b_in21,1,1040,NaN,bird,knife,0,1040_lp_dnn_0_knife_10_n03041632_52702.png
mlp_mixer_b_in21,1,1041,NaN,car,knife,1,1041_lp_dnn_1_knife_10_n03041632_40887.png
mlp_mixer_b_in21,1,1042,NaN,dog,cat,5,1042_lp_dnn_5_cat_10_n02123045_11034.png
mlp_mixer_b_in21,1,1043,NaN,elephant,boat,10,1043_lp_dnn_10_boat_10_n03662601_8067.png
mlp_mixer_b_in21,1,1044,NaN,bird,oven,5,1044_lp_dnn_5_oven_10_n04111531_15682.png
mlp_mixer_b_in21,1,1045,NaN,chair,bird,3,1045_lp_dnn_3_bird_10_n01582220_4078.png
mlp_mixer_b_in21,1,1046,NaN,bird,boat,7,1046_lp_dnn_7_boat_10_n03344393_4234.png
mlp_mixer_b_in21,1,1047,NaN,truck,cat,5,1047_lp_dnn_5_cat_10_n02123394_4164.png
mlp_mixer_b_in21,1,1048,NaN,clock,bear,7,1048_lp_dnn_7_bear_10_n02132136_4888.png
mlp_mixer_b_in21,1,1049,NaN,car,chair,3,1049_lp_dnn_3_chair_10_n04099969_18463.png
mlp_mixer_b_in21,1,1050,NaN,truck,airplane,7,1050_lp_dnn_7_airplane_10_n02690373_2293.png
mlp_mixer_b_in21,1,1051,NaN,bird,clock,3,1051_lp_dnn_3_clock_10_n03196217_8325.png
mlp_mixer_b_in21,1,1052,NaN,bird,knife,5,1052_lp_dnn_5_knife_10_n03041632_43506.png
mlp_mixer_b_in21,1,1053,NaN,bird,airplane,3,1053_lp_dnn_3_airplane_10_n02690373_10462.png
mlp_mixer_b_in21,1,1054,NaN,bird,clock,1,1054_lp_dnn_1_clock_10_n04548280_7951.png
mlp_mixer_b_in21,1,1055,NaN,truck,knife,40,1055_lp_dnn_40_knife_10_n03041632_10136.png
mlp_mixer_b_in21,1,1056,NaN,bird,dog,7,1056_lp_dnn_7_dog_10_n02091467_13440.png
mlp_mixer_b_in21,1,1057,NaN,truck,airplane,7,1057_lp_dnn_7_airplane_10_n02690373_7370.png
mlp_mixer_b_in21,1,1058,NaN,truck,truck,7,1058_lp_dnn_7_truck_10_n03796401_8212.png
mlp_mixer_b_in21,1,1059,NaN,dog,elephant,1,1059_lp_dnn_1_elephant_10_n02504013_3739.png
mlp_mixer_b_in21,1,1060,NaN,bird,elephant,0,1060_lp_dnn_0_elephant_10_n02504458_1933.png
mlp_mixer_b_in21,1,1061,NaN,dog,elephant,40,1061_lp_dnn_40_elephant_10_n02504458_5875.png
mlp_mixer_b_in21,1,1062,NaN,cat,knife,3,1062_lp_dnn_3_knife_10_n03041632_10000.png
mlp_mixer_b_in21,1,1063,NaN,oven,dog,15,1063_lp_dnn_15_dog_10_n02107312_1538.png
mlp_mixer_b_in21,1,1064,NaN,elephant,knife,0,1064_lp_dnn_0_knife_10_n03041632_8528.png
mlp_mixer_b_in21,1,1065,NaN,oven,dog,40,1065_lp_dnn_40_dog_10_n02097047_2426.png
mlp_mixer_b_in21,1,1066,NaN,truck,chair,15,1066_lp_dnn_15_chair_10_n04429376_16192.png
mlp_mixer_b_in21,1,1067,NaN,bird,oven,1,1067_lp_dnn_1_oven_10_n04111531_9427.png
mlp_mixer_b_in21,1,1068,NaN,car,clock,0,1068_lp_dnn_0_clock_10_n03196217_484.png
mlp_mixer_b_in21,1,1069,NaN,bird,elephant,3,1069_lp_dnn_3_elephant_10_n02504458_6348.png
mlp_mixer_b_in21,1,1070,NaN,bird,car,1,1070_lp_dnn_1_car_10_n03100240_1535.png
mlp_mixer_b_in21,1,1071,NaN,cat,clock,10,1071_lp_dnn_10_clock_10_n02708093_135.png
mlp_mixer_b_in21,1,1072,NaN,car,oven,0,1072_lp_dnn_0_oven_10_n04111531_7189.png
mlp_mixer_b_in21,1,1073,NaN,car,knife,40,1073_lp_dnn_40_knife_10_n03041632_24950.png
mlp_mixer_b_in21,1,1074,NaN,cat,bottle,15,1074_lp_dnn_15_bottle_10_n03937543_2759.png
mlp_mixer_b_in21,1,1075,NaN,truck,cat,40,1075_lp_dnn_40_cat_10_n02123394_5111.png
mlp_mixer_b_in21,1,1076,NaN,cat,knife,5,1076_lp_dnn_5_knife_10_n03041632_18311.png
mlp_mixer_b_in21,1,1077,NaN,cat,cat,10,1077_lp_dnn_10_cat_10_n02123394_1957.png
mlp_mixer_b_in21,1,1078,NaN,truck,airplane,40,1078_lp_dnn_40_airplane_10_n02690373_6002.png
mlp_mixer_b_in21,1,1079,NaN,oven,oven,40,1079_lp_dnn_40_oven_10_n04111531_4988.png
mlp_mixer_b_in21,1,1080,NaN,bird,chair,3,1080_lp_dnn_3_chair_10_n04429376_18863.png
mlp_mixer_b_in21,1,1081,NaN,truck,boat,15,1081_lp_dnn_15_boat_10_n04273569_103.png
mlp_mixer_b_in21,1,1082,NaN,oven,keyboard,3,1082_lp_dnn_3_keyboard_10_n03085013_21030.png
mlp_mixer_b_in21,1,1083,NaN,truck,car,10,1083_lp_dnn_10_car_10_n02814533_13802.png
mlp_mixer_b_in21,1,1084,NaN,elephant,clock,0,1084_lp_dnn_0_clock_10_n04548280_3036.png
mlp_mixer_b_in21,1,1085,NaN,dog,keyboard,5,1085_lp_dnn_5_keyboard_10_n04505470_4878.png
mlp_mixer_b_in21,1,1086,NaN,bird,keyboard,7,1086_lp_dnn_7_keyboard_10_n03085013_6828.png
mlp_mixer_b_in21,1,1087,NaN,dog,cat,5,1087_lp_dnn_5_cat_10_n02123394_1627.png
mlp_mixer_b_in21,1,1088,NaN,elephant,boat,7,1088_lp_dnn_7_boat_10_n02951358_30909.png
mlp_mixer_b_in21,1,1089,NaN,truck,keyboard,40,1089_lp_dnn_40_keyboard_10_n03085013_22960.png
mlp_mixer_b_in21,1,1090,NaN,cat,bird,15,1090_lp_dnn_15_bird_10_n02002724_383.png
mlp_mixer_b_in21,1,1091,NaN,bird,dog,3,1091_lp_dnn_3_dog_10_n02098105_1217.png
mlp_mixer_b_in21,1,1092,NaN,bird,clock,10,1092_lp_dnn_10_clock_10_n03196217_8526.png
mlp_mixer_b_in21,1,1093,NaN,bird,boat,3,1093_lp_dnn_3_boat_10_n03344393_5091.png
mlp_mixer_b_in21,1,1094,NaN,keyboard,clock,1,1094_lp_dnn_1_clock_10_n04548280_821.png
mlp_mixer_b_in21,1,1095,NaN,oven,bird,40,1095_lp_dnn_40_bird_10_n01820546_1123.png
mlp_mixer_b_in21,1,1096,NaN,bicycle,oven,0,1096_lp_dnn_0_oven_10_n04111531_22388.png
mlp_mixer_b_in21,1,1097,NaN,bird,truck,7,1097_lp_dnn_7_truck_10_n03796401_7928.png
mlp_mixer_b_in21,1,1098,NaN,oven,elephant,40,1098_lp_dnn_40_elephant_10_n02504013_7143.png
mlp_mixer_b_in21,1,1099,NaN,bird,car,1,1099_lp_dnn_1_car_10_n04285008_6154.png
mlp_mixer_b_in21,1,1100,NaN,elephant,clock,0,1100_lp_dnn_0_clock_10_n02708093_22.png
mlp_mixer_b_in21,1,1101,NaN,bird,clock,0,1101_lp_dnn_0_clock_10_n03196217_6160.png
mlp_mixer_b_in21,1,1102,NaN,dog,bear,40,1102_lp_dnn_40_bear_10_n02133161_444.png
mlp_mixer_b_in21,1,1103,NaN,bird,cat,0,1103_lp_dnn_0_cat_10_n02125311_21169.png
mlp_mixer_b_in21,1,1104,NaN,bird,oven,15,1104_lp_dnn_15_oven_10_n04111531_5168.png
mlp_mixer_b_in21,1,1105,NaN,bird,chair,1,1105_lp_dnn_1_chair_10_n02791124_66.png
mlp_mixer_b_in21,1,1106,NaN,car,bottle,3,1106_lp_dnn_3_bottle_10_n04591713_5364.png
mlp_mixer_b_in21,1,1107,NaN,bird,bear,3,1107_lp_dnn_3_bear_10_n02133161_8614.png
mlp_mixer_b_in21,1,1108,NaN,bird,truck,3,1108_lp_dnn_3_truck_10_n03417042_7469.png
mlp_mixer_b_in21,1,1109,NaN,truck,cat,15,1109_lp_dnn_15_cat_10_n02123159_7629.png
mlp_mixer_b_in21,1,1110,NaN,truck,bicycle,7,1110_lp_dnn_7_bicycle_10_n03792782_1747.png
mlp_mixer_b_in21,1,1111,NaN,dog,clock,1,1111_lp_dnn_1_clock_10_n04548280_5525.png
mlp_mixer_b_in21,1,1112,NaN,dog,cat,0,1112_lp_dnn_0_cat_10_n02123045_4237.png
mlp_mixer_b_in21,1,1113,NaN,cat,car,7,1113_lp_dnn_7_car_10_n04285008_1674.png
mlp_mixer_b_in21,1,1114,NaN,dog,keyboard,1,1114_lp_dnn_1_keyboard_10_n04505470_3852.png
mlp_mixer_b_in21,1,1115,NaN,truck,airplane,15,1115_lp_dnn_15_airplane_10_n02690373_2042.png
mlp_mixer_b_in21,1,1116,NaN,bird,dog,0,1116_lp_dnn_0_dog_10_n02101006_17876.png
mlp_mixer_b_in21,1,1117,NaN,car,clock,10,1117_lp_dnn_10_clock_10_n02708093_6214.png
mlp_mixer_b_in21,1,1118,NaN,oven,chair,40,1118_lp_dnn_40_chair_10_n03376595_6071.png
mlp_mixer_b_in21,1,1119,NaN,dog,bear,0,1119_lp_dnn_0_bear_10_n02132136_2846.png
mlp_mixer_b_in21,1,1120,NaN,cat,chair,3,1120_lp_dnn_3_chair_10_n04099969_12546.png
mlp_mixer_b_in21,1,1121,NaN,bird,boat,7,1121_lp_dnn_7_boat_10_n04612504_12444.png
mlp_mixer_b_in21,1,1122,NaN,cat,knife,40,1122_lp_dnn_40_knife_10_n03041632_49363.png
mlp_mixer_b_in21,1,1123,NaN,bird,truck,3,1123_lp_dnn_3_truck_10_n03796401_3250.png
mlp_mixer_b_in21,1,1124,NaN,bird,car,0,1124_lp_dnn_0_car_10_n04285008_3961.png
mlp_mixer_b_in21,1,1125,NaN,oven,car,3,1125_lp_dnn_3_car_10_n03100240_16466.png
mlp_mixer_b_in21,1,1126,NaN,elephant,keyboard,0,1126_lp_dnn_0_keyboard_10_n04505470_1105.png
mlp_mixer_b_in21,1,1127,NaN,truck,bear,10,1127_lp_dnn_10_bear_10_n02132136_21799.png
mlp_mixer_b_in21,1,1128,NaN,bird,truck,3,1128_lp_dnn_3_truck_10_n03417042_20133.png
mlp_mixer_b_in21,1,1129,NaN,clock,bird,10,1129_lp_dnn_10_bird_10_n01843383_277.png
mlp_mixer_b_in21,1,1130,NaN,bird,knife,3,1130_lp_dnn_3_knife_10_n03041632_13108.png
mlp_mixer_b_in21,1,1131,NaN,clock,bicycle,10,1131_lp_dnn_10_bicycle_10_n03792782_42795.png
mlp_mixer_b_in21,1,1132,NaN,chair,airplane,40,1132_lp_dnn_40_airplane_10_n02690373_4591.png
mlp_mixer_b_in21,1,1133,NaN,bird,bicycle,3,1133_lp_dnn_3_bicycle_10_n02835271_2594.png
mlp_mixer_b_in21,1,1134,NaN,bird,chair,0,1134_lp_dnn_0_chair_10_n03376595_13927.png
mlp_mixer_b_in21,1,1135,NaN,clock,chair,1,1135_lp_dnn_1_chair_10_n03376595_8012.png
mlp_mixer_b_in21,1,1136,NaN,dog,bicycle,40,1136_lp_dnn_40_bicycle_10_n02835271_9690.png
mlp_mixer_b_in21,1,1137,NaN,bird,airplane,3,1137_lp_dnn_3_airplane_10_n02690373_5870.png
mlp_mixer_b_in21,1,1138,NaN,truck,truck,15,1138_lp_dnn_15_truck_10_n03796401_3495.png
mlp_mixer_b_in21,1,1139,NaN,dog,bear,0,1139_lp_dnn_0_bear_10_n02134084_13075.png
mlp_mixer_b_in21,1,1140,NaN,bird,bicycle,3,1140_lp_dnn_3_bicycle_10_n02835271_9440.png
mlp_mixer_b_in21,1,1141,NaN,car,clock,15,1141_lp_dnn_15_clock_10_n03196217_2488.png
mlp_mixer_b_in21,1,1142,NaN,truck,chair,10,1142_lp_dnn_10_chair_10_n04429376_10341.png
mlp_mixer_b_in21,1,1143,NaN,bird,bear,5,1143_lp_dnn_5_bear_10_n02132136_9965.png
mlp_mixer_b_in21,1,1144,NaN,bird,oven,1,1144_lp_dnn_1_oven_10_n04111531_22445.png
mlp_mixer_b_in21,1,1145,NaN,cat,bottle,10,1145_lp_dnn_10_bottle_10_n03937543_1740.png
mlp_mixer_b_in21,1,1146,NaN,bird,bicycle,3,1146_lp_dnn_3_bicycle_10_n03792782_72443.png
mlp_mixer_b_in21,1,1147,NaN,bird,keyboard,5,1147_lp_dnn_5_keyboard_10_n03085013_23319.png
mlp_mixer_b_in21,1,1148,NaN,truck,bird,0,1148_lp_dnn_0_bird_10_n01860187_10562.png
mlp_mixer_b_in21,1,1149,NaN,bird,oven,5,1149_lp_dnn_5_oven_10_n04111531_585.png
mlp_mixer_b_in21,1,1150,NaN,car,elephant,40,1150_lp_dnn_40_elephant_10_n02504458_2419.png
mlp_mixer_b_in21,1,1151,NaN,knife,bicycle,0,1151_lp_dnn_0_bicycle_10_n03792782_13281.png
mlp_mixer_b_in21,1,1152,NaN,bird,car,3,1152_lp_dnn_3_car_10_n02814533_36174.png
mlp_mixer_b_in21,1,1153,NaN,truck,bird,40,1153_lp_dnn_40_bird_10_n01824575_822.png
mlp_mixer_b_in21,1,1154,NaN,bird,elephant,3,1154_lp_dnn_3_elephant_10_n02504458_10336.png
mlp_mixer_b_in21,1,1155,NaN,truck,bottle,10,1155_lp_dnn_10_bottle_10_n04591713_10065.png
mlp_mixer_b_in21,1,1156,NaN,cat,oven,15,1156_lp_dnn_15_oven_10_n04111531_9113.png
mlp_mixer_b_in21,1,1157,NaN,cat,oven,5,1157_lp_dnn_5_oven_10_n04111531_20493.png
mlp_mixer_b_in21,1,1158,NaN,truck,airplane,15,1158_lp_dnn_15_airplane_10_n02690373_6336.png
mlp_mixer_b_in21,1,1159,NaN,truck,oven,7,1159_lp_dnn_7_oven_10_n04111531_13354.png
mlp_mixer_b_in21,1,1160,NaN,truck,bottle,15,1160_lp_dnn_15_bottle_10_n02823428_8114.png
mlp_mixer_b_in21,1,1161,NaN,cat,dog,5,1161_lp_dnn_5_dog_10_n02092339_4132.png
mlp_mixer_b_in21,1,1162,NaN,oven,truck,15,1162_lp_dnn_15_truck_10_n03417042_8121.png
mlp_mixer_b_in21,1,1163,NaN,truck,bear,40,1163_lp_dnn_40_bear_10_n02133161_2120.png
mlp_mixer_b_in21,1,1164,NaN,elephant,bottle,7,1164_lp_dnn_7_bottle_10_n04560804_15577.png
mlp_mixer_b_in21,1,1165,NaN,dog,bottle,40,1165_lp_dnn_40_bottle_10_n04560804_9457.png
mlp_mixer_b_in21,1,1166,NaN,truck,bird,1,1166_lp_dnn_1_bird_10_n01601694_3230.png
mlp_mixer_b_in21,1,1167,NaN,car,clock,10,1167_lp_dnn_10_clock_10_n02708093_6730.png
mlp_mixer_b_in21,1,1168,NaN,clock,cat,10,1168_lp_dnn_10_cat_10_n02123045_5747.png
mlp_mixer_b_in21,1,1169,NaN,bicycle,bottle,1,1169_lp_dnn_1_bottle_10_n04579145_4162.png
mlp_mixer_b_in21,1,1170,NaN,truck,car,10,1170_lp_dnn_10_car_10_n03100240_1605.png
mlp_mixer_b_in21,1,1171,NaN,oven,cat,40,1171_lp_dnn_40_cat_10_n02123045_2029.png
mlp_mixer_b_in21,1,1172,NaN,truck,bear,40,1172_lp_dnn_40_bear_10_n02133161_2670.png
mlp_mixer_b_in21,1,1173,NaN,bird,boat,0,1173_lp_dnn_0_boat_10_n02951358_31986.png
mlp_mixer_b_in21,1,1174,NaN,dog,cat,3,1174_lp_dnn_3_cat_10_n02123597_72.png
mlp_mixer_b_in21,1,1175,NaN,truck,bicycle,10,1175_lp_dnn_10_bicycle_10_n02835271_13862.png
mlp_mixer_b_in21,1,1176,NaN,truck,car,10,1176_lp_dnn_10_car_10_n03100240_6029.png
mlp_mixer_b_in21,1,1177,NaN,truck,bottle,40,1177_lp_dnn_40_bottle_10_n02823428_5227.png
mlp_mixer_b_in21,1,1178,NaN,clock,bear,3,1178_lp_dnn_3_bear_10_n02133161_10141.png
mlp_mixer_b_in21,1,1179,NaN,truck,boat,15,1179_lp_dnn_15_boat_10_n04612504_13309.png
mlp_mixer_b_in21,1,1180,NaN,clock,cat,15,1180_lp_dnn_15_cat_10_n02124075_13747.png
mlp_mixer_b_in21,1,1181,NaN,bird,bicycle,0,1181_lp_dnn_0_bicycle_10_n03792782_9512.png
mlp_mixer_b_in21,1,1182,NaN,oven,truck,40,1182_lp_dnn_40_truck_10_n03417042_17616.png
mlp_mixer_b_in21,1,1183,NaN,truck,airplane,10,1183_lp_dnn_10_airplane_10_n02690373_1862.png