subj,session,trial,rt,object_response,category,condition,imagename
shufflenet_test,1,1,NaN,bicycle,elephant,0.03,0001_nse_dnn_0.03_elephant_10_n02504458_7209.png
shufflenet_test,1,2,NaN,clock,knife,0.90,0002_nse_dnn_0.90_knife_10_n03041632_82878.png
shufflenet_test,1,3,NaN,clock,clock,0.00,0003_nse_dnn_0.00_clock_10_n03196217_9231.png
shufflenet_test,1,4,NaN,oven,oven,0.00,0004_nse_dnn_0.00_oven_10_n04111531_11026.png
shufflenet_test,1,5,NaN,cat,clock,0.10,0005_nse_dnn_0.10_clock_10_n04548280_1114.png
shufflenet_test,1,6,NaN,clock,clock,0.03,0006_nse_dnn_0.03_clock_10_n02708093_8100.png
shufflenet_test,1,7,NaN,clock,clock,0.00,0007_nse_dnn_0.00_clock_10_n02708093_3591.png
shufflenet_test,1,8,NaN,clock,chair,0.00,0008_nse_dnn_0.00_chair_10_n03376595_16202.png
shufflenet_test,1,9,NaN,bottle,bottle,0.60,0009_nse_dnn_0.60_bottle_10_n02823428_3478.png
shufflenet_test,1,10,NaN,airplane,dog,0.10,0010_nse_dnn_0.10_dog_10_n02087394_28673.png
shufflenet_test,1,11,NaN,cat,chair,0.10,0011_nse_dnn_0.10_chair_10_n04099969_1690.png
shufflenet_test,1,12,NaN,cat,cat,0.03,0012_nse_dnn_0.03_cat_10_n02125311_1736.png
shufflenet_test,1,13,NaN,bottle,bear,0.90,0013_nse_dnn_0.90_bear_10_n02133161_1169.png
shufflenet_test,1,14,NaN,clock,bear,0.90,0014_nse_dnn_0.90_bear_10_n02133161_8835.png
shufflenet_test,1,15,NaN,bottle,car,0.20,0015_nse_dnn_0.20_car_10_n02814533_5430.png
shufflenet_test,1,16,NaN,bottle,bear,0.60,0016_nse_dnn_0.60_bear_10_n02134418_3767.png
shufflenet_test,1,17,NaN,cat,knife,0.20,0017_nse_dnn_0.20_knife_10_n03041632_10540.png
shufflenet_test,1,18,NaN,bottle,bicycle,0.20,0018_nse_dnn_0.20_bicycle_10_n02835271_1075.png
shufflenet_test,1,19,NaN,bear,bear,0.00,0019_nse_dnn_0.00_bear_10_n02134084_3888.png
shufflenet_test,1,20,NaN,dog,dog,0.00,0020_nse_dnn_0.00_dog_10_n02085936_9009.png
shufflenet_test,1,21,NaN,knife,knife,0.03,0021_nse_dnn_0.03_knife_10_n03041632_12651.png
shufflenet_test,1,22,NaN,bottle,bicycle,0.35,0022_nse_dnn_0.35_bicycle_10_n03792782_565.png
shufflenet_test,1,23,NaN,bottle,boat,0.20,0023_nse_dnn_0.20_boat_10_n04612504_40672.png
shufflenet_test,1,24,NaN,chair,dog,0.05,0024_nse_dnn_0.05_dog_10_n02098105_146.png
shufflenet_test,1,25,NaN,clock,clock,0.03,0025_nse_dnn_0.03_clock_10_n02708093_5944.png
shufflenet_test,1,26,NaN,knife,cat,0.03,0026_nse_dnn_0.03_cat_10_n02124075_14021.png
shufflenet_test,1,27,NaN,bottle,bear,0.20,0027_nse_dnn_0.20_bear_10_n02133161_7184.png
shufflenet_test,1,28,NaN,bottle,bottle,0.00,0028_nse_dnn_0.00_bottle_10_n03937543_9745.png
shufflenet_test,1,29,NaN,bottle,airplane,0.60,0029_nse_dnn_0.60_airplane_10_n02690373_9605.png
shufflenet_test,1,30,NaN,bottle,cat,0.20,0030_nse_dnn_0.20_cat_10_n02123045_7167.png
shufflenet_test,1,31,NaN,airplane,airplane,0.05,0031_nse_dnn_0.05_airplane_10_n02690373_4706.png
shufflenet_test,1,32,NaN,bottle,knife,0.35,0032_nse_dnn_0.35_knife_10_n03041632_45270.png
shufflenet_test,1,33,NaN,bottle,dog,0.35,0033_nse_dnn_0.35_dog_10_n02105855_9326.png
shufflenet_test,1,34,NaN,bottle,bear,0.10,0034_nse_dnn_0.10_bear_10_n02134418_4349.png
shufflenet_test,1,35,NaN,cat,cat,0.00,0035_nse_dnn_0.00_cat_10_n02123159_469.png
shufflenet_test,1,36,NaN,clock,truck,0.90,0036_nse_dnn_0.90_truck_10_n03417042_5004.png
shufflenet_test,1,37,NaN,airplane,bird,0.10,0037_nse_dnn_0.10_bird_10_n02051845_6333.png
shufflenet_test,1,38,NaN,clock,clock,0.90,0038_nse_dnn_0.90_clock_10_n03196217_12701.png
shufflenet_test,1,39,NaN,bottle,chair,0.60,0039_nse_dnn_0.60_chair_10_n03376595_12341.png
shufflenet_test,1,40,NaN,airplane,bicycle,0.10,0040_nse_dnn_0.10_bicycle_10_n03792782_66837.png
shufflenet_test,1,41,NaN,bicycle,bicycle,0.05,0041_nse_dnn_0.05_bicycle_10_n02835271_20177.png
shufflenet_test,1,42,NaN,knife,knife,0.00,0042_nse_dnn_0.00_knife_10_n03041632_22330.png
shufflenet_test,1,43,NaN,clock,cat,0.60,0043_nse_dnn_0.60_cat_10_n02123045_5913.png
shufflenet_test,1,44,NaN,bottle,elephant,0.20,0044_nse_dnn_0.20_elephant_10_n02504013_2464.png
shufflenet_test,1,45,NaN,clock,knife,0.90,0045_nse_dnn_0.90_knife_10_n03041632_99460.png
shufflenet_test,1,46,NaN,oven,dog,0.00,0046_nse_dnn_0.00_dog_10_n02099601_8686.png
shufflenet_test,1,47,NaN,clock,chair,0.90,0047_nse_dnn_0.90_chair_10_n02791124_5400.png
shufflenet_test,1,48,NaN,oven,chair,0.05,0048_nse_dnn_0.05_chair_10_n03376595_830.png
shufflenet_test,1,49,NaN,clock,cat,0.90,0049_nse_dnn_0.90_cat_10_n02124075_6024.png
shufflenet_test,1,50,NaN,cat,bicycle,0.10,0050_nse_dnn_0.10_bicycle_10_n03792782_9004.png
shufflenet_test,1,51,NaN,clock,keyboard,0.60,0051_nse_dnn_0.60_keyboard_10_n03085013_24088.png
shufflenet_test,1,52,NaN,cat,cat,0.10,0052_nse_dnn_0.10_cat_10_n02125311_33778.png
shufflenet_test,1,53,NaN,bicycle,bicycle,0.00,0053_nse_dnn_0.00_bicycle_10_n03792782_7092.png
shufflenet_test,1,54,NaN,bottle,airplane,0.35,0054_nse_dnn_0.35_airplane_10_n02690373_5724.png
shufflenet_test,1,55,NaN,bottle,bear,0.60,0055_nse_dnn_0.60_bear_10_n02133161_5637.png
shufflenet_test,1,56,NaN,cat,bear,0.10,0056_nse_dnn_0.10_bear_10_n02132136_5365.png
shufflenet_test,1,57,NaN,bottle,car,0.35,0057_nse_dnn_0.35_car_10_n03100240_1702.png
shufflenet_test,1,58,NaN,bottle,oven,0.35,0058_nse_dnn_0.35_oven_10_n04111531_2677.png
shufflenet_test,1,59,NaN,oven,oven,0.05,0059_nse_dnn_0.05_oven_10_n04111531_16583.png
shufflenet_test,1,60,NaN,chair,chair,0.10,0060_nse_dnn_0.10_chair_10_n04099969_6266.png
shufflenet_test,1,61,NaN,bottle,oven,0.60,0061_nse_dnn_0.60_oven_10_n04111531_6695.png
shufflenet_test,1,62,NaN,bicycle,car,0.10,0062_nse_dnn_0.10_car_10_n03100240_1438.png
shufflenet_test,1,63,NaN,bottle,keyboard,0.20,0063_nse_dnn_0.20_keyboard_10_n04505470_4684.png
shufflenet_test,1,64,NaN,chair,chair,0.00,0064_nse_dnn_0.00_chair_10_n04099969_8021.png
shufflenet_test,1,65,NaN,cat,car,0.20,0065_nse_dnn_0.20_car_10_n04285008_7139.png
shufflenet_test,1,66,NaN,truck,truck,0.03,0066_nse_dnn_0.03_truck_10_n03796401_9207.png
shufflenet_test,1,67,NaN,bottle,bottle,0.05,0067_nse_dnn_0.05_bottle_10_n04560804_3651.png
shufflenet_test,1,68,NaN,bottle,chair,0.60,0068_nse_dnn_0.60_chair_10_n03376595_3010.png
shufflenet_test,1,69,NaN,clock,bird,0.90,0069_nse_dnn_0.90_bird_10_n01514859_1951.png
shufflenet_test,1,70,NaN,car,car,0.10,0070_nse_dnn_0.10_car_10_n03100240_4594.png
shufflenet_test,1,71,NaN,bottle,clock,0.35,0071_nse_dnn_0.35_clock_10_n03196217_3333.png
shufflenet_test,1,72,NaN,airplane,car,0.10,0072_nse_dnn_0.10_car_10_n02814533_90798.png
shufflenet_test,1,73,NaN,keyboard,keyboard,0.00,0073_nse_dnn_0.00_keyboard_10_n03085013_19547.png
shufflenet_test,1,74,NaN,cat,bear,0.05,0074_nse_dnn_0.05_bear_10_n02133161_545.png
shufflenet_test,1,75,NaN,clock,oven,0.90,0075_nse_dnn_0.90_oven_10_n04111531_6489.png
shufflenet_test,1,76,NaN,clock,dog,0.90,0076_nse_dnn_0.90_dog_10_n02105056_15299.png
shufflenet_test,1,77,NaN,clock,knife,0.05,0077_nse_dnn_0.05_knife_10_n03041632_33255.png
shufflenet_test,1,78,NaN,bottle,cat,0.20,0078_nse_dnn_0.20_cat_10_n02123394_5895.png
shufflenet_test,1,79,NaN,bottle,bottle,0.03,0079_nse_dnn_0.03_bottle_10_n03983396_11654.png
shufflenet_test,1,80,NaN,airplane,airplane,0.03,0080_nse_dnn_0.03_airplane_10_n02690373_3860.png
shufflenet_test,1,81,NaN,clock,oven,0.03,0081_nse_dnn_0.03_oven_10_n04111531_6415.png
shufflenet_test,1,82,NaN,bottle,knife,0.60,0082_nse_dnn_0.60_knife_10_n03041632_39342.png
shufflenet_test,1,83,NaN,clock,bear,0.60,0083_nse_dnn_0.60_bear_10_n02133161_4882.png
shufflenet_test,1,84,NaN,bottle,bottle,0.00,0084_nse_dnn_0.00_bottle_10_n04591713_7474.png
shufflenet_test,1,85,NaN,bottle,bear,0.20,0085_nse_dnn_0.20_bear_10_n02132136_17615.png
shufflenet_test,1,86,NaN,bottle,boat,0.60,0086_nse_dnn_0.60_boat_10_n03344393_382.png
shufflenet_test,1,87,NaN,truck,truck,0.00,0087_nse_dnn_0.00_truck_10_n03796401_27811.png
shufflenet_test,1,88,NaN,bottle,keyboard,0.60,0088_nse_dnn_0.60_keyboard_10_n04505470_2603.png
shufflenet_test,1,89,NaN,bottle,boat,0.35,0089_nse_dnn_0.35_boat_10_n03662601_16418.png
shufflenet_test,1,90,NaN,bottle,bear,0.35,0090_nse_dnn_0.35_bear_10_n02132136_2760.png
shufflenet_test,1,91,NaN,bicycle,bicycle,0.05,0091_nse_dnn_0.05_bicycle_10_n02835271_10271.png
shufflenet_test,1,92,NaN,clock,bear,0.10,0092_nse_dnn_0.10_bear_10_n02134084_9127.png
shufflenet_test,1,93,NaN,bottle,bird,0.20,0093_nse_dnn_0.20_bird_10_n01797886_551.png
shufflenet_test,1,94,NaN,cat,truck,0.10,0094_nse_dnn_0.10_truck_10_n03417042_9559.png
shufflenet_test,1,95,NaN,clock,clock,0.90,0095_nse_dnn_0.90_clock_10_n02708093_3114.png
shufflenet_test,1,96,NaN,bicycle,bicycle,0.05,0096_nse_dnn_0.05_bicycle_10_n03792782_122.png
shufflenet_test,1,97,NaN,bottle,oven,0.35,0097_nse_dnn_0.35_oven_10_n04111531_3702.png
shufflenet_test,1,98,NaN,clock,car,0.90,0098_nse_dnn_0.90_car_10_n02814533_93476.png
shufflenet_test,1,99,NaN,bottle,cat,0.35,0099_nse_dnn_0.35_cat_10_n02123045_8491.png
shufflenet_test,1,100,NaN,bottle,chair,0.35,0100_nse_dnn_0.35_chair_10_n02791124_13469.png
shufflenet_test,1,101,NaN,clock,dog,0.60,0101_nse_dnn_0.60_dog_10_n02096294_5451.png
shufflenet_test,1,102,NaN,bottle,bicycle,0.35,0102_nse_dnn_0.35_bicycle_10_n03792782_44296.png
shufflenet_test,1,103,NaN,clock,cat,0.90,0103_nse_dnn_0.90_cat_10_n02123597_7138.png
shufflenet_test,1,104,NaN,bottle,bottle,0.35,0104_nse_dnn_0.35_bottle_10_n04560804_12736.png
shufflenet_test,1,105,NaN,bottle,oven,0.60,0105_nse_dnn_0.60_oven_10_n04111531_22797.png
shufflenet_test,1,106,NaN,cat,bird,0.10,0106_nse_dnn_0.10_bird_10_n02007558_7446.png
shufflenet_test,1,107,NaN,bottle,boat,0.60,0107_nse_dnn_0.60_boat_10_n03662601_16441.png
shufflenet_test,1,108,NaN,bottle,oven,0.60,0108_nse_dnn_0.60_oven_10_n04111531_22386.png
shufflenet_test,1,109,NaN,airplane,airplane,0.00,0109_nse_dnn_0.00_airplane_10_n02690373_1381.png
shufflenet_test,1,110,NaN,bottle,keyboard,0.20,0110_nse_dnn_0.20_keyboard_10_n03085013_20779.png
shufflenet_test,1,111,NaN,clock,dog,0.90,0111_nse_dnn_0.90_dog_10_n02095570_9488.png
shufflenet_test,1,112,NaN,cat,dog,0.03,0112_nse_dnn_0.03_dog_10_n02107312_3262.png
shufflenet_test,1,113,NaN,oven,oven,0.03,0113_nse_dnn_0.03_oven_10_n04111531_10681.png
shufflenet_test,1,114,NaN,clock,knife,0.90,0114_nse_dnn_0.90_knife_10_n03041632_29285.png
shufflenet_test,1,115,NaN,clock,elephant,0.60,0115_nse_dnn_0.60_elephant_10_n02504458_4776.png
shufflenet_test,1,116,NaN,cat,boat,0.10,0116_nse_dnn_0.10_boat_10_n04273569_11940.png
shufflenet_test,1,117,NaN,cat,cat,0.20,0117_nse_dnn_0.20_cat_10_n02123159_1413.png
shufflenet_test,1,118,NaN,bottle,airplane,0.60,0118_nse_dnn_0.60_airplane_10_n02690373_6674.png
shufflenet_test,1,119,NaN,bottle,clock,0.35,0119_nse_dnn_0.35_clock_10_n04548280_5088.png
shufflenet_test,1,120,NaN,clock,clock,0.05,0120_nse_dnn_0.05_clock_10_n02708093_6624.png
shufflenet_test,1,121,NaN,bottle,bicycle,0.20,0121_nse_dnn_0.20_bicycle_10_n03792782_29108.png
shufflenet_test,1,122,NaN,knife,clock,0.20,0122_nse_dnn_0.20_clock_10_n04548280_8649.png
shufflenet_test,1,123,NaN,bottle,knife,0.05,0123_nse_dnn_0.05_knife_10_n03041632_737.png
shufflenet_test,1,124,NaN,clock,clock,0.10,0124_nse_dnn_0.10_clock_10_n04548280_8668.png
shufflenet_test,1,125,NaN,airplane,bird,0.03,0125_nse_dnn_0.03_bird_10_n01558993_34885.png
shufflenet_test,1,126,NaN,clock,truck,0.60,0126_nse_dnn_0.60_truck_10_n04467665_37833.png
shufflenet_test,1,127,NaN,knife,boat,0.05,0127_nse_dnn_0.05_boat_10_n03662601_5176.png
shufflenet_test,1,128,NaN,chair,chair,0.00,0128_nse_dnn_0.00_chair_10_n03376595_9139.png
shufflenet_test,1,129,NaN,clock,oven,0.90,0129_nse_dnn_0.90_oven_10_n04111531_6211.png
shufflenet_test,1,130,NaN,boat,boat,0.00,0130_nse_dnn_0.00_boat_10_n04273569_11427.png
shufflenet_test,1,131,NaN,chair,bicycle,0.05,0131_nse_dnn_0.05_bicycle_10_n03792782_17198.png
shufflenet_test,1,132,NaN,clock,clock,0.00,0132_nse_dnn_0.00_clock_10_n04548280_4560.png
shufflenet_test,1,133,NaN,knife,knife,0.03,0133_nse_dnn_0.03_knife_10_n03041632_3781.png
shufflenet_test,1,134,NaN,clock,clock,0.10,0134_nse_dnn_0.10_clock_10_n03196217_958.png
shufflenet_test,1,135,NaN,bottle,elephant,0.35,0135_nse_dnn_0.35_elephant_10_n02504458_485.png
shufflenet_test,1,136,NaN,clock,clock,0.00,0136_nse_dnn_0.00_clock_10_n02708093_1038.png
shufflenet_test,1,137,NaN,bottle,oven,0.03,0137_nse_dnn_0.03_oven_10_n04111531_1723.png
shufflenet_test,1,138,NaN,bicycle,dog,0.03,0138_nse_dnn_0.03_dog_10_n02110806_27169.png
shufflenet_test,1,139,NaN,airplane,airplane,0.00,0139_nse_dnn_0.00_airplane_10_n02690373_12505.png
shufflenet_test,1,140,NaN,bottle,bird,0.60,0140_nse_dnn_0.60_bird_10_n01828970_454.png
shufflenet_test,1,141,NaN,keyboard,oven,0.20,0141_nse_dnn_0.20_oven_10_n04111531_15635.png
shufflenet_test,1,142,NaN,car,car,0.00,0142_nse_dnn_0.00_car_10_n04285008_8700.png
shufflenet_test,1,143,NaN,keyboard,keyboard,0.05,0143_nse_dnn_0.05_keyboard_10_n04505470_4592.png
shufflenet_test,1,144,NaN,bottle,boat,0.20,0144_nse_dnn_0.20_boat_10_n03344393_9560.png
shufflenet_test,1,145,NaN,bird,bear,0.00,0145_nse_dnn_0.00_bear_10_n02132136_5138.png
shufflenet_test,1,146,NaN,bottle,chair,0.60,0146_nse_dnn_0.60_chair_10_n03376595_591.png
shufflenet_test,1,147,NaN,clock,keyboard,0.90,0147_nse_dnn_0.90_keyboard_10_n03085013_20590.png
shufflenet_test,1,148,NaN,bottle,dog,0.35,0148_nse_dnn_0.35_dog_10_n02094258_1224.png
shufflenet_test,1,149,NaN,keyboard,clock,0.20,0149_nse_dnn_0.20_clock_10_n03196217_4486.png
shufflenet_test,1,150,NaN,bottle,bear,0.20,0150_nse_dnn_0.20_bear_10_n02134084_22150.png
shufflenet_test,1,151,NaN,cat,cat,0.10,0151_nse_dnn_0.10_cat_10_n02123045_3098.png
shufflenet_test,1,152,NaN,dog,bear,0.20,0152_nse_dnn_0.20_bear_10_n02134418_271.png
shufflenet_test,1,153,NaN,dog,oven,0.05,0153_nse_dnn_0.05_oven_10_n04111531_274.png
shufflenet_test,1,154,NaN,bottle,knife,0.35,0154_nse_dnn_0.35_knife_10_n03041632_8563.png
shufflenet_test,1,155,NaN,car,car,0.00,0155_nse_dnn_0.00_car_10_n02814533_52389.png
shufflenet_test,1,156,NaN,truck,airplane,0.00,0156_nse_dnn_0.00_airplane_10_n02690373_10455.png
shufflenet_test,1,157,NaN,bottle,truck,0.35,0157_nse_dnn_0.35_truck_10_n04467665_4810.png
shufflenet_test,1,158,NaN,knife,knife,0.10,0158_nse_dnn_0.10_knife_10_n03041632_3159.png
shufflenet_test,1,159,NaN,clock,cat,0.05,0159_nse_dnn_0.05_cat_10_n02123597_13411.png
shufflenet_test,1,160,NaN,clock,clock,0.10,0160_nse_dnn_0.10_clock_10_n04548280_2654.png
shufflenet_test,1,161,NaN,clock,elephant,0.90,0161_nse_dnn_0.90_elephant_10_n02504013_405.png
shufflenet_test,1,162,NaN,elephant,bottle,0.05,0162_nse_dnn_0.05_bottle_10_n04560804_14729.png
shufflenet_test,1,163,NaN,clock,bottle,0.90,0163_nse_dnn_0.90_bottle_10_n02823428_5482.png
shufflenet_test,1,164,NaN,clock,keyboard,0.90,0164_nse_dnn_0.90_keyboard_10_n04505470_4824.png
shufflenet_test,1,165,NaN,bottle,chair,0.20,0165_nse_dnn_0.20_chair_10_n04099969_14208.png
shufflenet_test,1,166,NaN,elephant,elephant,0.00,0166_nse_dnn_0.00_elephant_10_n02504013_1647.png
shufflenet_test,1,167,NaN,cat,cat,0.20,0167_nse_dnn_0.20_cat_10_n02123597_11564.png
shufflenet_test,1,168,NaN,bottle,car,0.35,0168_nse_dnn_0.35_car_10_n03100240_16653.png
shufflenet_test,1,169,NaN,chair,oven,0.00,0169_nse_dnn_0.00_oven_10_n04111531_9611.png
shufflenet_test,1,170,NaN,airplane,car,0.05,0170_nse_dnn_0.05_car_10_n02814533_35054.png
shufflenet_test,1,171,NaN,bottle,oven,0.20,0171_nse_dnn_0.20_oven_10_n04111531_3121.png
shufflenet_test,1,172,NaN,bottle,chair,0.20,0172_nse_dnn_0.20_chair_10_n02791124_4969.png
shufflenet_test,1,173,NaN,bottle,car,0.20,0173_nse_dnn_0.20_car_10_n02814533_211.png
shufflenet_test,1,174,NaN,dog,dog,0.00,0174_nse_dnn_0.00_dog_10_n02091244_13118.png
shufflenet_test,1,175,NaN,bottle,bottle,0.10,0175_nse_dnn_0.10_bottle_10_n04560804_3597.png
shufflenet_test,1,176,NaN,bottle,bottle,0.60,0176_nse_dnn_0.60_bottle_10_n04560804_30885.png
shufflenet_test,1,177,NaN,clock,bottle,0.60,0177_nse_dnn_0.60_bottle_10_n04560804_9813.png
shufflenet_test,1,178,NaN,bottle,boat,0.35,0178_nse_dnn_0.35_boat_10_n02951358_10003.png
shufflenet_test,1,179,NaN,bottle,bear,0.35,0179_nse_dnn_0.35_bear_10_n02133161_1500.png
shufflenet_test,1,180,NaN,bottle,oven,0.20,0180_nse_dnn_0.20_oven_10_n04111531_4467.png
shufflenet_test,1,181,NaN,bottle,clock,0.20,0181_nse_dnn_0.20_clock_10_n02708093_8002.png
shufflenet_test,1,182,NaN,bottle,boat,0.90,0182_nse_dnn_0.90_boat_10_n02951358_34261.png
shufflenet_test,1,183,NaN,boat,boat,0.00,0183_nse_dnn_0.00_boat_10_n04612504_20067.png
shufflenet_test,1,184,NaN,bottle,clock,0.35,0184_nse_dnn_0.35_clock_10_n03196217_6163.png
shufflenet_test,1,185,NaN,clock,keyboard,0.03,0185_nse_dnn_0.03_keyboard_10_n03085013_23119.png
shufflenet_test,1,186,NaN,bottle,clock,0.60,0186_nse_dnn_0.60_clock_10_n04548280_4358.png
shufflenet_test,1,187,NaN,airplane,dog,0.05,0187_nse_dnn_0.05_dog_10_n02101388_2968.png
shufflenet_test,1,188,NaN,keyboard,oven,0.10,0188_nse_dnn_0.10_oven_10_n04111531_8081.png
shufflenet_test,1,189,NaN,bottle,keyboard,0.05,0189_nse_dnn_0.05_keyboard_10_n04505470_4994.png
shufflenet_test,1,190,NaN,bottle,dog,0.10,0190_nse_dnn_0.10_dog_10_n02101006_16132.png
shufflenet_test,1,191,NaN,knife,elephant,0.10,0191_nse_dnn_0.10_elephant_10_n02504458_6888.png
shufflenet_test,1,192,NaN,bottle,bird,0.60,0192_nse_dnn_0.60_bird_10_n02018207_43958.png
shufflenet_test,1,193,NaN,cat,cat,0.03,0193_nse_dnn_0.03_cat_10_n02123045_2719.png
shufflenet_test,1,194,NaN,keyboard,keyboard,0.05,0194_nse_dnn_0.05_keyboard_10_n03085013_5611.png
shufflenet_test,1,195,NaN,clock,boat,0.03,0195_nse_dnn_0.03_boat_10_n03344393_6892.png
shufflenet_test,1,196,NaN,clock,chair,0.90,0196_nse_dnn_0.90_chair_10_n02791124_5411.png
shufflenet_test,1,197,NaN,elephant,elephant,0.05,0197_nse_dnn_0.05_elephant_10_n02504013_8391.png
shufflenet_test,1,198,NaN,bottle,chair,0.60,0198_nse_dnn_0.60_chair_10_n02791124_7167.png
shufflenet_test,1,199,NaN,dog,truck,0.10,0199_nse_dnn_0.10_truck_10_n03417042_2170.png
shufflenet_test,1,200,NaN,bottle,chair,0.35,0200_nse_dnn_0.35_chair_10_n04099969_2109.png
shufflenet_test,1,201,NaN,clock,chair,0.90,0201_nse_dnn_0.90_chair_10_n04429376_7321.png
shufflenet_test,1,202,NaN,bottle,airplane,0.35,0202_nse_dnn_0.35_airplane_10_n02690373_1733.png
shufflenet_test,1,203,NaN,dog,bird,0.10,0203_nse_dnn_0.10_bird_10_n02006656_5719.png
shufflenet_test,1,204,NaN,bicycle,bicycle,0.03,0204_nse_dnn_0.03_bicycle_10_n03792782_12354.png
shufflenet_test,1,205,NaN,bottle,bottle,0.03,0205_nse_dnn_0.03_bottle_10_n04557648_12671.png
shufflenet_test,1,206,NaN,elephant,elephant,0.05,0206_nse_dnn_0.05_elephant_10_n02504013_318.png
shufflenet_test,1,207,NaN,clock,boat,0.90,0207_nse_dnn_0.90_boat_10_n04273569_16078.png
shufflenet_test,1,208,NaN,cat,cat,0.03,0208_nse_dnn_0.03_cat_10_n02123597_9664.png
shufflenet_test,1,209,NaN,bottle,clock,0.35,0209_nse_dnn_0.35_clock_10_n04548280_4113.png
shufflenet_test,1,210,NaN,bottle,keyboard,0.60,0210_nse_dnn_0.60_keyboard_10_n03085013_20363.png
shufflenet_test,1,211,NaN,airplane,truck,0.03,0211_nse_dnn_0.03_truck_10_n04467665_67908.png
shufflenet_test,1,212,NaN,clock,truck,0.90,0212_nse_dnn_0.90_truck_10_n04467665_61522.png
shufflenet_test,1,213,NaN,clock,cat,0.90,0213_nse_dnn_0.90_cat_10_n02123045_3648.png
shufflenet_test,1,214,NaN,clock,dog,0.60,0214_nse_dnn_0.60_dog_10_n02107574_3685.png
shufflenet_test,1,215,NaN,bottle,dog,0.20,0215_nse_dnn_0.20_dog_10_n02100236_4048.png
shufflenet_test,1,216,NaN,bottle,bear,0.35,0216_nse_dnn_0.35_bear_10_n02134418_5073.png
shufflenet_test,1,217,NaN,clock,airplane,0.90,0217_nse_dnn_0.90_airplane_10_n02690373_9012.png
shufflenet_test,1,218,NaN,bottle,cat,0.35,0218_nse_dnn_0.35_cat_10_n02123159_6439.png
shufflenet_test,1,219,NaN,bottle,cat,0.60,0219_nse_dnn_0.60_cat_10_n02125311_3616.png
shufflenet_test,1,220,NaN,bottle,bottle,0.60,0220_nse_dnn_0.60_bottle_10_n04557648_4356.png
shufflenet_test,1,221,NaN,bottle,bird,0.35,0221_nse_dnn_0.35_bird_10_n02027492_6813.png
shufflenet_test,1,222,NaN,chair,chair,0.03,0222_nse_dnn_0.03_chair_10_n04429376_26765.png
shufflenet_test,1,223,NaN,bottle,elephant,0.35,0223_nse_dnn_0.35_elephant_10_n02504458_4811.png
shufflenet_test,1,224,NaN,knife,keyboard,0.20,0224_nse_dnn_0.20_keyboard_10_n04505470_1351.png
shufflenet_test,1,225,NaN,chair,chair,0.05,0225_nse_dnn_0.05_chair_10_n04099969_2532.png
shufflenet_test,1,226,NaN,cat,airplane,0.10,0226_nse_dnn_0.10_airplane_10_n02690373_8547.png
shufflenet_test,1,227,NaN,bottle,truck,0.35,0227_nse_dnn_0.35_truck_10_n03417042_23445.png
shufflenet_test,1,228,NaN,clock,truck,0.90,0228_nse_dnn_0.90_truck_10_n04467665_48953.png
shufflenet_test,1,229,NaN,bottle,boat,0.20,0229_nse_dnn_0.20_boat_10_n03662601_11739.png
shufflenet_test,1,230,NaN,cat,cat,0.03,0230_nse_dnn_0.03_cat_10_n02123597_4948.png
shufflenet_test,1,231,NaN,bottle,oven,0.35,0231_nse_dnn_0.35_oven_10_n04111531_9411.png
shufflenet_test,1,232,NaN,bottle,bicycle,0.60,0232_nse_dnn_0.60_bicycle_10_n03792782_988.png
shufflenet_test,1,233,NaN,airplane,car,0.05,0233_nse_dnn_0.05_car_10_n02814533_65294.png
shufflenet_test,1,234,NaN,bottle,bottle,0.00,0234_nse_dnn_0.00_bottle_10_n04557648_10420.png
shufflenet_test,1,235,NaN,bottle,chair,0.60,0235_nse_dnn_0.60_chair_10_n04099969_33329.png
shufflenet_test,1,236,NaN,bottle,oven,0.35,0236_nse_dnn_0.35_oven_10_n04111531_20493.png
shufflenet_test,1,237,NaN,clock,clock,0.10,0237_nse_dnn_0.10_clock_10_n04548280_7839.png
shufflenet_test,1,238,NaN,bottle,airplane,0.20,0238_nse_dnn_0.20_airplane_10_n02690373_7229.png
shufflenet_test,1,239,NaN,bottle,airplane,0.10,0239_nse_dnn_0.10_airplane_10_n02690373_5003.png
shufflenet_test,1,240,NaN,bottle,chair,0.20,0240_nse_dnn_0.20_chair_10_n02791124_206.png
shufflenet_test,1,241,NaN,oven,oven,0.00,0241_nse_dnn_0.00_oven_10_n04111531_7283.png
shufflenet_test,1,242,NaN,bottle,chair,0.35,0242_nse_dnn_0.35_chair_10_n04429376_8124.png
shufflenet_test,1,243,NaN,keyboard,keyboard,0.00,0243_nse_dnn_0.00_keyboard_10_n04505470_3864.png
shufflenet_test,1,244,NaN,bottle,bottle,0.35,0244_nse_dnn_0.35_bottle_10_n03937543_3289.png
shufflenet_test,1,245,NaN,clock,boat,0.10,0245_nse_dnn_0.10_boat_10_n03344393_5207.png
shufflenet_test,1,246,NaN,clock,airplane,0.90,0246_nse_dnn_0.90_airplane_10_n02690373_629.png
shufflenet_test,1,247,NaN,boat,elephant,0.03,0247_nse_dnn_0.03_elephant_10_n02504013_104.png
shufflenet_test,1,248,NaN,bottle,bicycle,0.03,0248_nse_dnn_0.03_bicycle_10_n03792782_42626.png
shufflenet_test,1,249,NaN,bottle,truck,0.35,0249_nse_dnn_0.35_truck_10_n03417042_6847.png
shufflenet_test,1,250,NaN,cat,chair,0.10,0250_nse_dnn_0.10_chair_10_n04429376_23573.png
shufflenet_test,1,251,NaN,clock,clock,0.03,0251_nse_dnn_0.03_clock_10_n03196217_7637.png
shufflenet_test,1,252,NaN,airplane,airplane,0.05,0252_nse_dnn_0.05_airplane_10_n02690373_932.png
shufflenet_test,1,253,NaN,truck,truck,0.05,0253_nse_dnn_0.05_truck_10_n03417042_9478.png
shufflenet_test,1,254,NaN,clock,clock,0.05,0254_nse_dnn_0.05_clock_10_n04548280_7800.png
shufflenet_test,1,255,NaN,keyboard,keyboard,0.10,0255_nse_dnn_0.10_keyboard_10_n03085013_1698.png
shufflenet_test,1,256,NaN,keyboard,boat,0.20,0256_nse_dnn_0.20_boat_10_n04273569_32553.png
shufflenet_test,1,257,NaN,cat,bear,0.03,0257_nse_dnn_0.03_bear_10_n02132136_23078.png
shufflenet_test,1,258,NaN,bottle,bottle,0.00,0258_nse_dnn_0.00_bottle_10_n04591713_5476.png
shufflenet_test,1,259,NaN,cat,knife,0.10,0259_nse_dnn_0.10_knife_10_n03041632_31849.png
shufflenet_test,1,260,NaN,clock,truck,0.90,0260_nse_dnn_0.90_truck_10_n03417042_12908.png
shufflenet_test,1,261,NaN,bottle,clock,0.60,0261_nse_dnn_0.60_clock_10_n02708093_1418.png
shufflenet_test,1,262,NaN,truck,car,0.05,0262_nse_dnn_0.05_car_10_n03100240_4173.png
shufflenet_test,1,263,NaN,keyboard,keyboard,0.10,0263_nse_dnn_0.10_keyboard_10_n03085013_25476.png
shufflenet_test,1,264,NaN,cat,cat,0.05,0264_nse_dnn_0.05_cat_10_n02125311_34464.png
shufflenet_test,1,265,NaN,bottle,knife,0.20,0265_nse_dnn_0.20_knife_10_n03041632_36789.png
shufflenet_test,1,266,NaN,bottle,dog,0.03,0266_nse_dnn_0.03_dog_10_n02108915_3733.png
shufflenet_test,1,267,NaN,clock,knife,0.60,0267_nse_dnn_0.60_knife_10_n03041632_42162.png
shufflenet_test,1,268,NaN,keyboard,keyboard,0.10,0268_nse_dnn_0.10_keyboard_10_n03085013_29042.png
shufflenet_test,1,269,NaN,airplane,airplane,0.00,0269_nse_dnn_0.00_airplane_10_n02690373_19407.png
shufflenet_test,1,270,NaN,bottle,bear,0.05,0270_nse_dnn_0.05_bear_10_n02134084_22029.png
shufflenet_test,1,271,NaN,bottle,dog,0.60,0271_nse_dnn_0.60_dog_10_n02088238_11711.png
shufflenet_test,1,272,NaN,bottle,elephant,0.20,0272_nse_dnn_0.20_elephant_10_n02504013_8522.png
shufflenet_test,1,273,NaN,bottle,elephant,0.60,0273_nse_dnn_0.60_elephant_10_n02504458_5941.png
shufflenet_test,1,274,NaN,truck,truck,0.00,0274_nse_dnn_0.00_truck_10_n04467665_242.png
shufflenet_test,1,275,NaN,keyboard,keyboard,0.00,0275_nse_dnn_0.00_keyboard_10_n04505470_4473.png
shufflenet_test,1,276,NaN,bottle,boat,0.05,0276_nse_dnn_0.05_boat_10_n03662601_10811.png
shufflenet_test,1,277,NaN,keyboard,keyboard,0.03,0277_nse_dnn_0.03_keyboard_10_n03085013_20495.png
shufflenet_test,1,278,NaN,bicycle,bicycle,0.00,0278_nse_dnn_0.00_bicycle_10_n02835271_15038.png
shufflenet_test,1,279,NaN,bottle,bear,0.20,0279_nse_dnn_0.20_bear_10_n02134418_5271.png
shufflenet_test,1,280,NaN,keyboard,chair,0.10,0280_nse_dnn_0.10_chair_10_n02791124_1217.png
shufflenet_test,1,281,NaN,bottle,elephant,0.10,0281_nse_dnn_0.10_elephant_10_n02504013_2394.png
shufflenet_test,1,282,NaN,bottle,dog,0.35,0282_nse_dnn_0.35_dog_10_n02105505_5576.png
shufflenet_test,1,283,NaN,cat,airplane,0.10,0283_nse_dnn_0.10_airplane_10_n02690373_2579.png
shufflenet_test,1,284,NaN,cat,dog,0.05,0284_nse_dnn_0.05_dog_10_n02102480_10015.png
shufflenet_test,1,285,NaN,cat,cat,0.10,0285_nse_dnn_0.10_cat_10_n02124075_5853.png
shufflenet_test,1,286,NaN,truck,truck,0.00,0286_nse_dnn_0.00_truck_10_n03796401_2012.png
shufflenet_test,1,287,NaN,cat,keyboard,0.10,0287_nse_dnn_0.10_keyboard_10_n04505470_1286.png
shufflenet_test,1,288,NaN,clock,truck,0.10,0288_nse_dnn_0.10_truck_10_n04467665_74008.png
shufflenet_test,1,289,NaN,clock,bottle,0.90,0289_nse_dnn_0.90_bottle_10_n04560804_10541.png
shufflenet_test,1,290,NaN,bottle,airplane,0.20,0290_nse_dnn_0.20_airplane_10_n02690373_8967.png
shufflenet_test,1,291,NaN,clock,keyboard,0.60,0291_nse_dnn_0.60_keyboard_10_n04505470_3309.png
shufflenet_test,1,292,NaN,car,car,0.05,0292_nse_dnn_0.05_car_10_n02814533_42665.png
shufflenet_test,1,293,NaN,bottle,bicycle,0.03,0293_nse_dnn_0.03_bicycle_10_n03792782_6613.png
shufflenet_test,1,294,NaN,knife,knife,0.00,0294_nse_dnn_0.00_knife_10_n03041632_38540.png
shufflenet_test,1,295,NaN,clock,dog,0.90,0295_nse_dnn_0.90_dog_10_n02109047_6542.png
shufflenet_test,1,296,NaN,bottle,bicycle,0.35,0296_nse_dnn_0.35_bicycle_10_n03792782_51156.png
shufflenet_test,1,297,NaN,keyboard,bottle,0.10,0297_nse_dnn_0.10_bottle_10_n04579145_5795.png
shufflenet_test,1,298,NaN,chair,chair,0.03,0298_nse_dnn_0.03_chair_10_n03376595_787.png
shufflenet_test,1,299,NaN,clock,bottle,0.90,0299_nse_dnn_0.90_bottle_10_n04579145_1117.png
shufflenet_test,1,300,NaN,bicycle,bird,0.00,0300_nse_dnn_0.00_bird_10_n01795545_11076.png
shufflenet_test,1,301,NaN,bottle,clock,0.20,0301_nse_dnn_0.20_clock_10_n03196217_6741.png
shufflenet_test,1,302,NaN,oven,oven,0.00,0302_nse_dnn_0.00_oven_10_n04111531_3555.png
shufflenet_test,1,303,NaN,bottle,knife,0.20,0303_nse_dnn_0.20_knife_10_n03041632_36280.png
shufflenet_test,1,304,NaN,truck,truck,0.03,0304_nse_dnn_0.03_truck_10_n04467665_74235.png
shufflenet_test,1,305,NaN,clock,clock,0.90,0305_nse_dnn_0.90_clock_10_n04548280_6287.png
shufflenet_test,1,306,NaN,elephant,elephant,0.00,0306_nse_dnn_0.00_elephant_10_n02504458_6472.png
shufflenet_test,1,307,NaN,bicycle,bicycle,0.05,0307_nse_dnn_0.05_bicycle_10_n03792782_11034.png
shufflenet_test,1,308,NaN,clock,dog,0.60,0308_nse_dnn_0.60_dog_10_n02109525_50916.png
shufflenet_test,1,309,NaN,clock,dog,0.60,0309_nse_dnn_0.60_dog_10_n02097658_1923.png
shufflenet_test,1,310,NaN,bottle,knife,0.03,0310_nse_dnn_0.03_knife_10_n03041632_22480.png
shufflenet_test,1,311,NaN,bottle,elephant,0.35,0311_nse_dnn_0.35_elephant_10_n02504458_1041.png
shufflenet_test,1,312,NaN,elephant,knife,0.10,0312_nse_dnn_0.10_knife_10_n03041632_28129.png
shufflenet_test,1,313,NaN,car,car,0.00,0313_nse_dnn_0.00_car_10_n03100240_14667.png
shufflenet_test,1,314,NaN,airplane,airplane,0.03,0314_nse_dnn_0.03_airplane_10_n02690373_3821.png
shufflenet_test,1,315,NaN,clock,cat,0.90,0315_nse_dnn_0.90_cat_10_n02124075_1183.png
shufflenet_test,1,316,NaN,clock,car,0.90,0316_nse_dnn_0.90_car_10_n03100240_1194.png
shufflenet_test,1,317,NaN,bottle,oven,0.60,0317_nse_dnn_0.60_oven_10_n04111531_9370.png
shufflenet_test,1,318,NaN,bottle,truck,0.20,0318_nse_dnn_0.20_truck_10_n03417042_10597.png
shufflenet_test,1,319,NaN,airplane,truck,0.05,0319_nse_dnn_0.05_truck_10_n03417042_6489.png
shufflenet_test,1,320,NaN,airplane,bottle,0.05,0320_nse_dnn_0.05_bottle_10_n04591713_6662.png
shufflenet_test,1,321,NaN,bottle,bottle,0.60,0321_nse_dnn_0.60_bottle_10_n04560804_4624.png
shufflenet_test,1,322,NaN,bottle,bird,0.00,0322_nse_dnn_0.00_bird_10_n01818515_7370.png
shufflenet_test,1,323,NaN,keyboard,keyboard,0.05,0323_nse_dnn_0.05_keyboard_10_n03085013_15646.png
shufflenet_test,1,324,NaN,cat,cat,0.03,0324_nse_dnn_0.03_cat_10_n02124075_14924.png
shufflenet_test,1,325,NaN,dog,elephant,0.20,0325_nse_dnn_0.20_elephant_10_n02504013_18217.png
shufflenet_test,1,326,NaN,bottle,keyboard,0.35,0326_nse_dnn_0.35_keyboard_10_n04505470_4724.png
shufflenet_test,1,327,NaN,bottle,clock,0.20,0327_nse_dnn_0.20_clock_10_n04548280_9646.png
shufflenet_test,1,328,NaN,bottle,cat,0.35,0328_nse_dnn_0.35_cat_10_n02123394_6376.png
shufflenet_test,1,329,NaN,bottle,elephant,0.35,0329_nse_dnn_0.35_elephant_10_n02504458_130.png
shufflenet_test,1,330,NaN,clock,cat,0.90,0330_nse_dnn_0.90_cat_10_n02124075_9291.png
shufflenet_test,1,331,NaN,bottle,bird,0.10,0331_nse_dnn_0.10_bird_10_n02037110_3949.png
shufflenet_test,1,332,NaN,car,car,0.00,0332_nse_dnn_0.00_car_10_n04285008_10905.png
shufflenet_test,1,333,NaN,chair,chair,0.10,0333_nse_dnn_0.10_chair_10_n04429376_619.png
shufflenet_test,1,334,NaN,clock,boat,0.90,0334_nse_dnn_0.90_boat_10_n02951358_30335.png
shufflenet_test,1,335,NaN,clock,oven,0.90,0335_nse_dnn_0.90_oven_10_n04111531_17995.png
shufflenet_test,1,336,NaN,bottle,bird,0.35,0336_nse_dnn_0.35_bird_10_n01828970_11221.png
shufflenet_test,1,337,NaN,dog,elephant,0.10,0337_nse_dnn_0.10_elephant_10_n02504013_1719.png
shufflenet_test,1,338,NaN,chair,oven,0.10,0338_nse_dnn_0.10_oven_10_n04111531_8009.png
shufflenet_test,1,339,NaN,bottle,airplane,0.60,0339_nse_dnn_0.60_airplane_10_n02690373_8233.png
shufflenet_test,1,340,NaN,cat,dog,0.10,0340_nse_dnn_0.10_dog_10_n02092339_401.png
shufflenet_test,1,341,NaN,cat,bottle,0.10,0341_nse_dnn_0.10_bottle_10_n02823428_11579.png
shufflenet_test,1,342,NaN,bottle,car,0.60,0342_nse_dnn_0.60_car_10_n04285008_6951.png
shufflenet_test,1,343,NaN,bottle,bicycle,0.35,0343_nse_dnn_0.35_bicycle_10_n03792782_12504.png
shufflenet_test,1,344,NaN,bottle,bottle,0.00,0344_nse_dnn_0.00_bottle_10_n02823428_4073.png
shufflenet_test,1,345,NaN,bottle,elephant,0.35,0345_nse_dnn_0.35_elephant_10_n02504013_945.png
shufflenet_test,1,346,NaN,cat,cat,0.10,0346_nse_dnn_0.10_cat_10_n02124075_12815.png
shufflenet_test,1,347,NaN,clock,truck,0.60,0347_nse_dnn_0.60_truck_10_n03417042_4876.png
shufflenet_test,1,348,NaN,chair,keyboard,0.05,0348_nse_dnn_0.05_keyboard_10_n04505470_4628.png
shufflenet_test,1,349,NaN,bottle,bear,0.20,0349_nse_dnn_0.20_bear_10_n02133161_1427.png
shufflenet_test,1,350,NaN,bottle,boat,0.60,0350_nse_dnn_0.60_boat_10_n04273569_7296.png
shufflenet_test,1,351,NaN,clock,chair,0.90,0351_nse_dnn_0.90_chair_10_n04099969_41686.png
shufflenet_test,1,352,NaN,airplane,airplane,0.03,0352_nse_dnn_0.03_airplane_10_n02690373_10006.png
shufflenet_test,1,353,NaN,clock,knife,0.90,0353_nse_dnn_0.90_knife_10_n03041632_20595.png
shufflenet_test,1,354,NaN,clock,oven,0.90,0354_nse_dnn_0.90_oven_10_n04111531_2054.png
shufflenet_test,1,355,NaN,bottle,truck,0.20,0355_nse_dnn_0.20_truck_10_n04467665_40307.png
shufflenet_test,1,356,NaN,bear,bear,0.00,0356_nse_dnn_0.00_bear_10_n02133161_396.png
shufflenet_test,1,357,NaN,bottle,dog,0.03,0357_nse_dnn_0.03_dog_10_n02105056_5636.png
shufflenet_test,1,358,NaN,bottle,bicycle,0.35,0358_nse_dnn_0.35_bicycle_10_n02835271_8798.png
shufflenet_test,1,359,NaN,clock,bear,0.90,0359_nse_dnn_0.90_bear_10_n02134418_5478.png
shufflenet_test,1,360,NaN,clock,boat,0.90,0360_nse_dnn_0.90_boat_10_n04612504_4250.png
shufflenet_test,1,361,NaN,bottle,knife,0.35,0361_nse_dnn_0.35_knife_10_n03041632_18959.png
shufflenet_test,1,362,NaN,bottle,dog,0.35,0362_nse_dnn_0.35_dog_10_n02105251_6564.png
shufflenet_test,1,363,NaN,clock,boat,0.90,0363_nse_dnn_0.90_boat_10_n04612504_7148.png
shufflenet_test,1,364,NaN,boat,boat,0.03,0364_nse_dnn_0.03_boat_10_n04273569_4348.png
shufflenet_test,1,365,NaN,car,car,0.03,0365_nse_dnn_0.03_car_10_n02814533_88986.png
shufflenet_test,1,366,NaN,bear,bear,0.03,0366_nse_dnn_0.03_bear_10_n02134418_2590.png
shufflenet_test,1,367,NaN,cat,bird,0.20,0367_nse_dnn_0.20_bird_10_n02007558_5877.png
shufflenet_test,1,368,NaN,clock,clock,0.05,0368_nse_dnn_0.05_clock_10_n02708093_1313.png
shufflenet_test,1,369,NaN,bottle,keyboard,0.35,0369_nse_dnn_0.35_keyboard_10_n03085013_20798.png
shufflenet_test,1,370,NaN,clock,dog,0.90,0370_nse_dnn_0.90_dog_10_n02109525_13812.png
shufflenet_test,1,371,NaN,dog,bear,0.20,0371_nse_dnn_0.20_bear_10_n02134418_4458.png
shufflenet_test,1,372,NaN,bottle,bottle,0.20,0372_nse_dnn_0.20_bottle_10_n04560804_21519.png
shufflenet_test,1,373,NaN,elephant,elephant,0.10,0373_nse_dnn_0.10_elephant_10_n02504458_8183.png
shufflenet_test,1,374,NaN,clock,keyboard,0.90,0374_nse_dnn_0.90_keyboard_10_n03085013_20330.png
shufflenet_test,1,375,NaN,cat,elephant,0.10,0375_nse_dnn_0.10_elephant_10_n02504013_5533.png
shufflenet_test,1,376,NaN,clock,oven,0.90,0376_nse_dnn_0.90_oven_10_n04111531_1009.png
shufflenet_test,1,377,NaN,bicycle,bicycle,0.05,0377_nse_dnn_0.05_bicycle_10_n03792782_48457.png
shufflenet_test,1,378,NaN,cat,cat,0.10,0378_nse_dnn_0.10_cat_10_n02124075_7240.png
shufflenet_test,1,379,NaN,bottle,car,0.60,0379_nse_dnn_0.60_car_10_n02814533_39597.png
shufflenet_test,1,380,NaN,chair,chair,0.03,0380_nse_dnn_0.03_chair_10_n04429376_33792.png
shufflenet_test,1,381,NaN,bottle,bicycle,0.60,0381_nse_dnn_0.60_bicycle_10_n03792782_15679.png
shufflenet_test,1,382,NaN,bottle,bicycle,0.60,0382_nse_dnn_0.60_bicycle_10_n02835271_9237.png
shufflenet_test,1,383,NaN,bottle,bottle,0.35,0383_nse_dnn_0.35_bottle_10_n04591713_665.png
shufflenet_test,1,384,NaN,cat,cat,0.03,0384_nse_dnn_0.03_cat_10_n02123159_8257.png
shufflenet_test,1,385,NaN,cat,dog,0.10,0385_nse_dnn_0.10_dog_10_n02108551_26509.png
shufflenet_test,1,386,NaN,bottle,clock,0.60,0386_nse_dnn_0.60_clock_10_n03196217_3697.png
shufflenet_test,1,387,NaN,bicycle,bicycle,0.03,0387_nse_dnn_0.03_bicycle_10_n02835271_25268.png
shufflenet_test,1,388,NaN,knife,truck,0.10,0388_nse_dnn_0.10_truck_10_n03796401_407.png
shufflenet_test,1,389,NaN,clock,clock,0.05,0389_nse_dnn_0.05_clock_10_n04548280_2045.png
shufflenet_test,1,390,NaN,bicycle,oven,0.05,0390_nse_dnn_0.05_oven_10_n04111531_5792.png
shufflenet_test,1,391,NaN,elephant,elephant,0.05,0391_nse_dnn_0.05_elephant_10_n02504458_8212.png
shufflenet_test,1,392,NaN,clock,bird,0.03,0392_nse_dnn_0.03_bird_10_n01843383_8624.png
shufflenet_test,1,393,NaN,bottle,airplane,0.20,0393_nse_dnn_0.20_airplane_10_n02690373_4814.png
shufflenet_test,1,394,NaN,bottle,truck,0.60,0394_nse_dnn_0.60_truck_10_n03796401_6184.png
shufflenet_test,1,395,NaN,dog,dog,0.03,0395_nse_dnn_0.03_dog_10_n02094114_1589.png
shufflenet_test,1,396,NaN,clock,clock,0.90,0396_nse_dnn_0.90_clock_10_n02708093_6572.png
shufflenet_test,1,397,NaN,bottle,boat,0.60,0397_nse_dnn_0.60_boat_10_n02951358_15551.png
shufflenet_test,1,398,NaN,bottle,boat,0.35,0398_nse_dnn_0.35_boat_10_n03662601_7352.png
shufflenet_test,1,399,NaN,bottle,bicycle,0.60,0399_nse_dnn_0.60_bicycle_10_n03792782_14984.png
shufflenet_test,1,400,NaN,knife,knife,0.35,0400_nse_dnn_0.35_knife_10_n03041632_84012.png
shufflenet_test,1,401,NaN,bottle,keyboard,0.10,0401_nse_dnn_0.10_keyboard_10_n03085013_9146.png
shufflenet_test,1,402,NaN,airplane,airplane,0.03,0402_nse_dnn_0.03_airplane_10_n02690373_6755.png
shufflenet_test,1,403,NaN,bottle,dog,0.20,0403_nse_dnn_0.20_dog_10_n02086079_17983.png
shufflenet_test,1,404,NaN,bear,bear,0.00,0404_nse_dnn_0.00_bear_10_n02134418_3284.png
shufflenet_test,1,405,NaN,bottle,elephant,0.35,0405_nse_dnn_0.35_elephant_10_n02504458_8064.png
shufflenet_test,1,406,NaN,bottle,cat,0.20,0406_nse_dnn_0.20_cat_10_n02123394_289.png
shufflenet_test,1,407,NaN,keyboard,knife,0.20,0407_nse_dnn_0.20_knife_10_n03041632_18995.png
shufflenet_test,1,408,NaN,airplane,bird,0.03,0408_nse_dnn_0.03_bird_10_n01843065_4999.png
shufflenet_test,1,409,NaN,bottle,keyboard,0.60,0409_nse_dnn_0.60_keyboard_10_n03085013_22417.png
shufflenet_test,1,410,NaN,cat,bear,0.05,0410_nse_dnn_0.05_bear_10_n02132136_3224.png
shufflenet_test,1,411,NaN,airplane,boat,0.05,0411_nse_dnn_0.05_boat_10_n03662601_33184.png
shufflenet_test,1,412,NaN,cat,bear,0.05,0412_nse_dnn_0.05_bear_10_n02133161_2396.png
shufflenet_test,1,413,NaN,bottle,keyboard,0.35,0413_nse_dnn_0.35_keyboard_10_n03085013_24578.png
shufflenet_test,1,414,NaN,bottle,car,0.35,0414_nse_dnn_0.35_car_10_n02814533_4519.png
shufflenet_test,1,415,NaN,bottle,bottle,0.00,0415_nse_dnn_0.00_bottle_10_n03937543_2428.png
shufflenet_test,1,416,NaN,cat,dog,0.05,0416_nse_dnn_0.05_dog_10_n02091635_8296.png
shufflenet_test,1,417,NaN,bottle,bottle,0.35,0417_nse_dnn_0.35_bottle_10_n03983396_11434.png
shufflenet_test,1,418,NaN,airplane,boat,0.00,0418_nse_dnn_0.00_boat_10_n02951358_7315.png
shufflenet_test,1,419,NaN,bottle,bird,0.20,0419_nse_dnn_0.20_bird_10_n01860187_7297.png
shufflenet_test,1,420,NaN,bottle,oven,0.20,0420_nse_dnn_0.20_oven_10_n04111531_4250.png
shufflenet_test,1,421,NaN,bottle,bear,0.20,0421_nse_dnn_0.20_bear_10_n02133161_9463.png
shufflenet_test,1,422,NaN,bird,bird,0.00,0422_nse_dnn_0.00_bird_10_n02009229_4129.png
shufflenet_test,1,423,NaN,bottle,knife,0.10,0423_nse_dnn_0.10_knife_10_n03041632_30821.png
shufflenet_test,1,424,NaN,clock,cat,0.90,0424_nse_dnn_0.90_cat_10_n02123394_2490.png
shufflenet_test,1,425,NaN,dog,dog,0.00,0425_nse_dnn_0.00_dog_10_n02087394_2723.png
shufflenet_test,1,426,NaN,clock,dog,0.90,0426_nse_dnn_0.90_dog_10_n02093754_5736.png
shufflenet_test,1,427,NaN,clock,bottle,0.60,0427_nse_dnn_0.60_bottle_10_n02823428_9063.png
shufflenet_test,1,428,NaN,bottle,truck,0.60,0428_nse_dnn_0.60_truck_10_n04467665_20933.png
shufflenet_test,1,429,NaN,car,car,0.10,0429_nse_dnn_0.10_car_10_n03100240_5999.png
shufflenet_test,1,430,NaN,clock,oven,0.03,0430_nse_dnn_0.03_oven_10_n04111531_3671.png
shufflenet_test,1,431,NaN,clock,truck,0.05,0431_nse_dnn_0.05_truck_10_n03417042_7187.png
shufflenet_test,1,432,NaN,bottle,bottle,0.35,0432_nse_dnn_0.35_bottle_10_n04557648_2954.png
shufflenet_test,1,433,NaN,bottle,elephant,0.35,0433_nse_dnn_0.35_elephant_10_n02504013_6645.png
shufflenet_test,1,434,NaN,cat,keyboard,0.10,0434_nse_dnn_0.10_keyboard_10_n04505470_6876.png
shufflenet_test,1,435,NaN,cat,bird,0.20,0435_nse_dnn_0.20_bird_10_n02056570_3286.png
shufflenet_test,1,436,NaN,clock,bird,0.90,0436_nse_dnn_0.90_bird_10_n02037110_8826.png
shufflenet_test,1,437,NaN,car,car,0.00,0437_nse_dnn_0.00_car_10_n03100240_11400.png
shufflenet_test,1,438,NaN,clock,bird,0.60,0438_nse_dnn_0.60_bird_10_n02018795_6389.png
shufflenet_test,1,439,NaN,bottle,oven,0.35,0439_nse_dnn_0.35_oven_10_n04111531_2458.png
shufflenet_test,1,440,NaN,clock,cat,0.60,0440_nse_dnn_0.60_cat_10_n02123159_2256.png
shufflenet_test,1,441,NaN,elephant,elephant,0.03,0441_nse_dnn_0.03_elephant_10_n02504458_611.png
shufflenet_test,1,442,NaN,knife,knife,0.03,0442_nse_dnn_0.03_knife_10_n03041632_18141.png
shufflenet_test,1,443,NaN,bottle,bird,0.60,0443_nse_dnn_0.60_bird_10_n01843065_1871.png
shufflenet_test,1,444,NaN,bottle,bird,0.05,0444_nse_dnn_0.05_bird_10_n01833805_7361.png
shufflenet_test,1,445,NaN,bottle,elephant,0.20,0445_nse_dnn_0.20_elephant_10_n02504458_5827.png
shufflenet_test,1,446,NaN,bottle,bicycle,0.35,0446_nse_dnn_0.35_bicycle_10_n02835271_5825.png
shufflenet_test,1,447,NaN,clock,bear,0.90,0447_nse_dnn_0.90_bear_10_n02134084_12801.png
shufflenet_test,1,448,NaN,cat,cat,0.10,0448_nse_dnn_0.10_cat_10_n02123394_3611.png
shufflenet_test,1,449,NaN,bottle,chair,0.35,0449_nse_dnn_0.35_chair_10_n04429376_9589.png
shufflenet_test,1,450,NaN,bottle,cat,0.35,0450_nse_dnn_0.35_cat_10_n02123394_3885.png
shufflenet_test,1,451,NaN,clock,elephant,0.90,0451_nse_dnn_0.90_elephant_10_n02504013_22633.png
shufflenet_test,1,452,NaN,bottle,car,0.20,0452_nse_dnn_0.20_car_10_n02814533_2271.png
shufflenet_test,1,453,NaN,boat,truck,0.05,0453_nse_dnn_0.05_truck_10_n03417042_10150.png
shufflenet_test,1,454,NaN,bottle,oven,0.35,0454_nse_dnn_0.35_oven_10_n04111531_10583.png
shufflenet_test,1,455,NaN,bottle,bottle,0.03,0455_nse_dnn_0.03_bottle_10_n03937543_1602.png
shufflenet_test,1,456,NaN,bottle,knife,0.03,0456_nse_dnn_0.03_knife_10_n03041632_3504.png
shufflenet_test,1,457,NaN,bicycle,bicycle,0.03,0457_nse_dnn_0.03_bicycle_10_n03792782_1004.png
shufflenet_test,1,458,NaN,cat,cat,0.05,0458_nse_dnn_0.05_cat_10_n02123394_8172.png
shufflenet_test,1,459,NaN,cat,elephant,0.10,0459_nse_dnn_0.10_elephant_10_n02504013_156.png
shufflenet_test,1,460,NaN,bottle,car,0.03,0460_nse_dnn_0.03_car_10_n04285008_5559.png
shufflenet_test,1,461,NaN,bottle,elephant,0.35,0461_nse_dnn_0.35_elephant_10_n02504458_6694.png
shufflenet_test,1,462,NaN,bottle,car,0.90,0462_nse_dnn_0.90_car_10_n04285008_15003.png
shufflenet_test,1,463,NaN,cat,chair,0.10,0463_nse_dnn_0.10_chair_10_n03376595_15723.png
shufflenet_test,1,464,NaN,clock,knife,0.60,0464_nse_dnn_0.60_knife_10_n03041632_48816.png
shufflenet_test,1,465,NaN,clock,chair,0.90,0465_nse_dnn_0.90_chair_10_n03376595_4142.png
shufflenet_test,1,466,NaN,bottle,car,0.60,0466_nse_dnn_0.60_car_10_n04285008_2363.png
shufflenet_test,1,467,NaN,keyboard,truck,0.10,0467_nse_dnn_0.10_truck_10_n03417042_7335.png
shufflenet_test,1,468,NaN,oven,oven,0.00,0468_nse_dnn_0.00_oven_10_n04111531_6313.png
shufflenet_test,1,469,NaN,cat,bird,0.05,0469_nse_dnn_0.05_bird_10_n02033041_6728.png
shufflenet_test,1,470,NaN,clock,clock,0.00,0470_nse_dnn_0.00_clock_10_n04548280_1032.png
shufflenet_test,1,471,NaN,airplane,airplane,0.03,0471_nse_dnn_0.03_airplane_10_n02690373_1983.png
shufflenet_test,1,472,NaN,chair,keyboard,0.00,0472_nse_dnn_0.00_keyboard_10_n03085013_23369.png
shufflenet_test,1,473,NaN,clock,elephant,0.90,0473_nse_dnn_0.90_elephant_10_n02504458_2419.png
shufflenet_test,1,474,NaN,knife,truck,0.20,0474_nse_dnn_0.20_truck_10_n04467665_72022.png
shufflenet_test,1,475,NaN,clock,bottle,0.05,0475_nse_dnn_0.05_bottle_10_n04579145_5289.png
shufflenet_test,1,476,NaN,bottle,clock,0.05,0476_nse_dnn_0.05_clock_10_n02708093_2898.png
shufflenet_test,1,477,NaN,bottle,dog,0.20,0477_nse_dnn_0.20_dog_10_n02101556_4066.png
shufflenet_test,1,478,NaN,clock,car,0.90,0478_nse_dnn_0.90_car_10_n04285008_17052.png
shufflenet_test,1,479,NaN,clock,truck,0.90,0479_nse_dnn_0.90_truck_10_n04467665_37811.png
shufflenet_test,1,480,NaN,keyboard,keyboard,0.20,0480_nse_dnn_0.20_keyboard_10_n04505470_578.png
shufflenet_test,1,481,NaN,bottle,cat,0.10,0481_nse_dnn_0.10_cat_10_n02123045_2721.png
shufflenet_test,1,482,NaN,keyboard,car,0.10,0482_nse_dnn_0.10_car_10_n04285008_7776.png
shufflenet_test,1,483,NaN,clock,bottle,0.90,0483_nse_dnn_0.90_bottle_10_n04591713_2014.png
shufflenet_test,1,484,NaN,bottle,bottle,0.10,0484_nse_dnn_0.10_bottle_10_n03983396_9662.png
shufflenet_test,1,485,NaN,bottle,bicycle,0.35,0485_nse_dnn_0.35_bicycle_10_n03792782_10367.png
shufflenet_test,1,486,NaN,bottle,keyboard,0.60,0486_nse_dnn_0.60_keyboard_10_n03085013_22942.png
shufflenet_test,1,487,NaN,cat,cat,0.00,0487_nse_dnn_0.00_cat_10_n02123597_3896.png
shufflenet_test,1,488,NaN,clock,bicycle,0.03,0488_nse_dnn_0.03_bicycle_10_n03792782_2649.png
shufflenet_test,1,489,NaN,cat,bear,0.10,0489_nse_dnn_0.10_bear_10_n02133161_2476.png
shufflenet_test,1,490,NaN,airplane,car,0.10,0490_nse_dnn_0.10_car_10_n04285008_7249.png
shufflenet_test,1,491,NaN,bottle,chair,0.20,0491_nse_dnn_0.20_chair_10_n04099969_8604.png
shufflenet_test,1,492,NaN,bicycle,bicycle,0.05,0492_nse_dnn_0.05_bicycle_10_n02835271_5963.png
shufflenet_test,1,493,NaN,clock,airplane,0.90,0493_nse_dnn_0.90_airplane_10_n02690373_17011.png
shufflenet_test,1,494,NaN,clock,bird,0.90,0494_nse_dnn_0.90_bird_10_n02028035_889.png
shufflenet_test,1,495,NaN,bottle,cat,0.60,0495_nse_dnn_0.60_cat_10_n02123159_7949.png
shufflenet_test,1,496,NaN,car,car,0.03,0496_nse_dnn_0.03_car_10_n03100240_15686.png
shufflenet_test,1,497,NaN,bottle,cat,0.35,0497_nse_dnn_0.35_cat_10_n02123159_6106.png
shufflenet_test,1,498,NaN,cat,cat,0.00,0498_nse_dnn_0.00_cat_10_n02123394_7105.png
shufflenet_test,1,499,NaN,bottle,clock,0.35,0499_nse_dnn_0.35_clock_10_n04548280_4747.png
shufflenet_test,1,500,NaN,bottle,elephant,0.20,0500_nse_dnn_0.20_elephant_10_n02504458_975.png
shufflenet_test,1,501,NaN,bottle,boat,0.20,0501_nse_dnn_0.20_boat_10_n03344393_11590.png
shufflenet_test,1,502,NaN,clock,airplane,0.90,0502_nse_dnn_0.90_airplane_10_n02690373_2026.png
shufflenet_test,1,503,NaN,bottle,clock,0.60,0503_nse_dnn_0.60_clock_10_n03196217_2346.png
shufflenet_test,1,504,NaN,bottle,truck,0.60,0504_nse_dnn_0.60_truck_10_n04467665_34932.png
shufflenet_test,1,505,NaN,bottle,oven,0.35,0505_nse_dnn_0.35_oven_10_n04111531_13625.png
shufflenet_test,1,506,NaN,airplane,airplane,0.00,0506_nse_dnn_0.00_airplane_10_n02690373_8666.png
shufflenet_test,1,507,NaN,bottle,oven,0.35,0507_nse_dnn_0.35_oven_10_n04111531_4148.png
shufflenet_test,1,508,NaN,dog,dog,0.00,0508_nse_dnn_0.00_dog_10_n02107683_7021.png
shufflenet_test,1,509,NaN,dog,bird,0.05,0509_nse_dnn_0.05_bird_10_n02025239_22440.png
shufflenet_test,1,510,NaN,clock,elephant,0.90,0510_nse_dnn_0.90_elephant_10_n02504013_7032.png
shufflenet_test,1,511,NaN,clock,truck,0.90,0511_nse_dnn_0.90_truck_10_n03417042_10788.png
shufflenet_test,1,512,NaN,bottle,knife,0.05,0512_nse_dnn_0.05_knife_10_n03041632_86118.png
shufflenet_test,1,513,NaN,bottle,bottle,0.00,0513_nse_dnn_0.00_bottle_10_n04557648_9790.png
shufflenet_test,1,514,NaN,clock,chair,0.90,0514_nse_dnn_0.90_chair_10_n02791124_8788.png
shufflenet_test,1,515,NaN,clock,dog,0.03,0515_nse_dnn_0.03_dog_10_n02095314_4996.png
shufflenet_test,1,516,NaN,knife,keyboard,0.20,0516_nse_dnn_0.20_keyboard_10_n04505470_4679.png
shufflenet_test,1,517,NaN,bottle,bird,0.03,0517_nse_dnn_0.03_bird_10_n01860187_24935.png
shufflenet_test,1,518,NaN,bottle,bicycle,0.60,0518_nse_dnn_0.60_bicycle_10_n02835271_14123.png
shufflenet_test,1,519,NaN,clock,boat,0.10,0519_nse_dnn_0.10_boat_10_n03344393_7075.png
shufflenet_test,1,520,NaN,knife,knife,0.03,0520_nse_dnn_0.03_knife_10_n03041632_13130.png
shufflenet_test,1,521,NaN,keyboard,bottle,0.20,0521_nse_dnn_0.20_bottle_10_n04591713_5569.png
shufflenet_test,1,522,NaN,bear,elephant,0.05,0522_nse_dnn_0.05_elephant_10_n02504013_19753.png
shufflenet_test,1,523,NaN,clock,dog,0.60,0523_nse_dnn_0.60_dog_10_n02099849_4819.png
shufflenet_test,1,524,NaN,clock,elephant,0.90,0524_nse_dnn_0.90_elephant_10_n02504458_12938.png
shufflenet_test,1,525,NaN,bottle,bottle,0.03,0525_nse_dnn_0.03_bottle_10_n02823428_901.png
shufflenet_test,1,526,NaN,truck,bicycle,0.00,0526_nse_dnn_0.00_bicycle_10_n03792782_2024.png
shufflenet_test,1,527,NaN,bicycle,truck,0.05,0527_nse_dnn_0.05_truck_10_n03417042_24856.png
shufflenet_test,1,528,NaN,elephant,elephant,0.00,0528_nse_dnn_0.00_elephant_10_n02504013_19694.png
shufflenet_test,1,529,NaN,bottle,bird,0.20,0529_nse_dnn_0.20_bird_10_n01530575_10119.png
shufflenet_test,1,530,NaN,bottle,bottle,0.20,0530_nse_dnn_0.20_bottle_10_n04557648_954.png
shufflenet_test,1,531,NaN,clock,cat,0.90,0531_nse_dnn_0.90_cat_10_n02123159_277.png
shufflenet_test,1,532,NaN,knife,knife,0.00,0532_nse_dnn_0.00_knife_10_n03041632_289.png
shufflenet_test,1,533,NaN,bottle,truck,0.35,0533_nse_dnn_0.35_truck_10_n04467665_450.png
shufflenet_test,1,534,NaN,knife,knife,0.00,0534_nse_dnn_0.00_knife_10_n03041632_1607.png
shufflenet_test,1,535,NaN,bottle,bird,0.20,0535_nse_dnn_0.20_bird_10_n01532829_4692.png
shufflenet_test,1,536,NaN,cat,dog,0.10,0536_nse_dnn_0.10_dog_10_n02102177_4771.png
shufflenet_test,1,537,NaN,cat,car,0.10,0537_nse_dnn_0.10_car_10_n04285008_14554.png
shufflenet_test,1,538,NaN,clock,clock,0.00,0538_nse_dnn_0.00_clock_10_n04548280_3716.png
shufflenet_test,1,539,NaN,truck,car,0.03,0539_nse_dnn_0.03_car_10_n04285008_6849.png
shufflenet_test,1,540,NaN,bottle,keyboard,0.35,0540_nse_dnn_0.35_keyboard_10_n03085013_24467.png
shufflenet_test,1,541,NaN,bottle,clock,0.35,0541_nse_dnn_0.35_clock_10_n03196217_6672.png
shufflenet_test,1,542,NaN,cat,dog,0.10,0542_nse_dnn_0.10_dog_10_n02105251_5570.png
shufflenet_test,1,543,NaN,bottle,dog,0.35,0543_nse_dnn_0.35_dog_10_n02107574_3352.png
shufflenet_test,1,544,NaN,bottle,boat,0.60,0544_nse_dnn_0.60_boat_10_n03662601_8191.png
shufflenet_test,1,545,NaN,boat,boat,0.00,0545_nse_dnn_0.00_boat_10_n04612504_30617.png
shufflenet_test,1,546,NaN,bottle,bear,0.60,0546_nse_dnn_0.60_bear_10_n02132136_2900.png
shufflenet_test,1,547,NaN,cat,truck,0.10,0547_nse_dnn_0.10_truck_10_n03417042_8139.png
shufflenet_test,1,548,NaN,cat,chair,0.03,0548_nse_dnn_0.03_chair_10_n03376595_5112.png
shufflenet_test,1,549,NaN,bicycle,bird,0.05,0549_nse_dnn_0.05_bird_10_n02006656_10360.png
shufflenet_test,1,550,NaN,bottle,elephant,0.20,0550_nse_dnn_0.20_elephant_10_n02504458_2799.png
shufflenet_test,1,551,NaN,bicycle,airplane,0.10,0551_nse_dnn_0.10_airplane_10_n02690373_6096.png
shufflenet_test,1,552,NaN,cat,bird,0.20,0552_nse_dnn_0.20_bird_10_n02002556_139.png
shufflenet_test,1,553,NaN,knife,car,0.00,0553_nse_dnn_0.00_car_10_n04285008_3056.png
shufflenet_test,1,554,NaN,clock,knife,0.10,0554_nse_dnn_0.10_knife_10_n03041632_14774.png
shufflenet_test,1,555,NaN,bottle,oven,0.20,0555_nse_dnn_0.20_oven_10_n04111531_2163.png
shufflenet_test,1,556,NaN,keyboard,cat,0.20,0556_nse_dnn_0.20_cat_10_n02123597_30864.png
shufflenet_test,1,557,NaN,bottle,boat,0.35,0557_nse_dnn_0.35_boat_10_n02951358_33559.png
shufflenet_test,1,558,NaN,clock,bicycle,0.60,0558_nse_dnn_0.60_bicycle_10_n02835271_4619.png
shufflenet_test,1,559,NaN,truck,truck,0.03,0559_nse_dnn_0.03_truck_10_n03796401_21261.png
shufflenet_test,1,560,NaN,truck,airplane,0.10,0560_nse_dnn_0.10_airplane_10_n02690373_2496.png
shufflenet_test,1,561,NaN,bottle,boat,0.35,0561_nse_dnn_0.35_boat_10_n03662601_5419.png
shufflenet_test,1,562,NaN,airplane,airplane,0.03,0562_nse_dnn_0.03_airplane_10_n02690373_7686.png
shufflenet_test,1,563,NaN,clock,oven,0.90,0563_nse_dnn_0.90_oven_10_n04111531_5246.png
shufflenet_test,1,564,NaN,clock,bicycle,0.60,0564_nse_dnn_0.60_bicycle_10_n03792782_1099.png
shufflenet_test,1,565,NaN,knife,chair,0.35,0565_nse_dnn_0.35_chair_10_n04099969_12909.png
shufflenet_test,1,566,NaN,bicycle,elephant,0.03,0566_nse_dnn_0.03_elephant_10_n02504013_7147.png
shufflenet_test,1,567,NaN,bottle,truck,0.35,0567_nse_dnn_0.35_truck_10_n04467665_44715.png
shufflenet_test,1,568,NaN,keyboard,keyboard,0.00,0568_nse_dnn_0.00_keyboard_10_n04505470_1338.png
shufflenet_test,1,569,NaN,clock,airplane,0.90,0569_nse_dnn_0.90_airplane_10_n02690373_4982.png
shufflenet_test,1,570,NaN,clock,bicycle,0.90,0570_nse_dnn_0.90_bicycle_10_n03792782_3754.png
shufflenet_test,1,571,NaN,bottle,bicycle,0.00,0571_nse_dnn_0.00_bicycle_10_n03792782_1418.png
shufflenet_test,1,572,NaN,airplane,truck,0.03,0572_nse_dnn_0.03_truck_10_n03796401_26359.png
shufflenet_test,1,573,NaN,bottle,car,0.05,0573_nse_dnn_0.05_car_10_n03100240_9149.png
shufflenet_test,1,574,NaN,clock,bird,0.90,0574_nse_dnn_0.90_bird_10_n01534433_14677.png
shufflenet_test,1,575,NaN,car,car,0.03,0575_nse_dnn_0.03_car_10_n03100240_8683.png
shufflenet_test,1,576,NaN,chair,chair,0.03,0576_nse_dnn_0.03_chair_10_n03376595_524.png
shufflenet_test,1,577,NaN,bottle,dog,0.20,0577_nse_dnn_0.20_dog_10_n02094433_6402.png
shufflenet_test,1,578,NaN,bottle,car,0.20,0578_nse_dnn_0.20_car_10_n03100240_16803.png
shufflenet_test,1,579,NaN,bottle,bicycle,0.20,0579_nse_dnn_0.20_bicycle_10_n03792782_15114.png
shufflenet_test,1,580,NaN,bottle,chair,0.60,0580_nse_dnn_0.60_chair_10_n04429376_21362.png
shufflenet_test,1,581,NaN,clock,keyboard,0.90,0581_nse_dnn_0.90_keyboard_10_n04505470_3499.png
shufflenet_test,1,582,NaN,clock,boat,0.90,0582_nse_dnn_0.90_boat_10_n04273569_26577.png
shufflenet_test,1,583,NaN,cat,boat,0.10,0583_nse_dnn_0.10_boat_10_n04273569_27325.png
shufflenet_test,1,584,NaN,bottle,keyboard,0.20,0584_nse_dnn_0.20_keyboard_10_n04505470_9570.png
shufflenet_test,1,585,NaN,clock,bicycle,0.90,0585_nse_dnn_0.90_bicycle_10_n03792782_4067.png
shufflenet_test,1,586,NaN,cat,bear,0.10,0586_nse_dnn_0.10_bear_10_n02132136_282.png
shufflenet_test,1,587,NaN,boat,boat,0.03,0587_nse_dnn_0.03_boat_10_n04612504_30424.png
shufflenet_test,1,588,NaN,clock,knife,0.90,0588_nse_dnn_0.90_knife_10_n03041632_4879.png
shufflenet_test,1,589,NaN,elephant,elephant,0.05,0589_nse_dnn_0.05_elephant_10_n02504458_7634.png
shufflenet_test,1,590,NaN,bottle,cat,0.35,0590_nse_dnn_0.35_cat_10_n02123597_7615.png
shufflenet_test,1,591,NaN,bottle,bicycle,0.35,0591_nse_dnn_0.35_bicycle_10_n03792782_20387.png
shufflenet_test,1,592,NaN,clock,clock,0.10,0592_nse_dnn_0.10_clock_10_n02708093_527.png
shufflenet_test,1,593,NaN,cat,elephant,0.05,0593_nse_dnn_0.05_elephant_10_n02504013_5501.png
shufflenet_test,1,594,NaN,bottle,dog,0.35,0594_nse_dnn_0.35_dog_10_n02106166_2273.png
shufflenet_test,1,595,NaN,boat,boat,0.03,0595_nse_dnn_0.03_boat_10_n03662601_34009.png
shufflenet_test,1,596,NaN,bottle,boat,0.35,0596_nse_dnn_0.35_boat_10_n04273569_12536.png
shufflenet_test,1,597,NaN,elephant,elephant,0.00,0597_nse_dnn_0.00_elephant_10_n02504013_8534.png
shufflenet_test,1,598,NaN,bottle,clock,0.35,0598_nse_dnn_0.35_clock_10_n04548280_156.png
shufflenet_test,1,599,NaN,clock,bicycle,0.90,0599_nse_dnn_0.90_bicycle_10_n02835271_542.png
shufflenet_test,1,600,NaN,cat,bear,0.00,0600_nse_dnn_0.00_bear_10_n02133161_5434.png
shufflenet_test,1,601,NaN,bottle,truck,0.60,0601_nse_dnn_0.60_truck_10_n04467665_63829.png
shufflenet_test,1,602,NaN,clock,oven,0.90,0602_nse_dnn_0.90_oven_10_n04111531_10220.png
shufflenet_test,1,603,NaN,clock,boat,0.60,0603_nse_dnn_0.60_boat_10_n04273569_28074.png
shufflenet_test,1,604,NaN,cat,cat,0.00,0604_nse_dnn_0.00_cat_10_n02123394_2482.png
shufflenet_test,1,605,NaN,clock,boat,0.90,0605_nse_dnn_0.90_boat_10_n03662601_20381.png
shufflenet_test,1,606,NaN,bottle,bird,0.35,0606_nse_dnn_0.35_bird_10_n01817953_12511.png
shufflenet_test,1,607,NaN,cat,cat,0.05,0607_nse_dnn_0.05_cat_10_n02125311_5346.png
shufflenet_test,1,608,NaN,knife,oven,0.00,0608_nse_dnn_0.00_oven_10_n04111531_14758.png
shufflenet_test,1,609,NaN,dog,bird,0.10,0609_nse_dnn_0.10_bird_10_n02002556_1398.png
shufflenet_test,1,610,NaN,bicycle,knife,0.05,0610_nse_dnn_0.05_knife_10_n03041632_99912.png
shufflenet_test,1,611,NaN,airplane,airplane,0.05,0611_nse_dnn_0.05_airplane_10_n02690373_1075.png
shufflenet_test,1,612,NaN,bottle,cat,0.35,0612_nse_dnn_0.35_cat_10_n02123045_10834.png
shufflenet_test,1,613,NaN,clock,car,0.60,0613_nse_dnn_0.60_car_10_n02814533_41478.png
shufflenet_test,1,614,NaN,cat,cat,0.00,0614_nse_dnn_0.00_cat_10_n02123394_1602.png
shufflenet_test,1,615,NaN,clock,knife,0.03,0615_nse_dnn_0.03_knife_10_n03041632_21017.png
shufflenet_test,1,616,NaN,dog,bear,0.03,0616_nse_dnn_0.03_bear_10_n02134084_572.png
shufflenet_test,1,617,NaN,clock,clock,0.05,0617_nse_dnn_0.05_clock_10_n03196217_3987.png
shufflenet_test,1,618,NaN,dog,dog,0.03,0618_nse_dnn_0.03_dog_10_n02098286_6303.png
shufflenet_test,1,619,NaN,airplane,keyboard,0.00,0619_nse_dnn_0.00_keyboard_10_n04505470_4379.png
shufflenet_test,1,620,NaN,bird,boat,0.05,0620_nse_dnn_0.05_boat_10_n04273569_15138.png
shufflenet_test,1,621,NaN,clock,airplane,0.90,0621_nse_dnn_0.90_airplane_10_n02690373_18234.png
shufflenet_test,1,622,NaN,clock,clock,0.90,0622_nse_dnn_0.90_clock_10_n03196217_2179.png
shufflenet_test,1,623,NaN,bottle,bottle,0.03,0623_nse_dnn_0.03_bottle_10_n04579145_6860.png
shufflenet_test,1,624,NaN,bottle,car,0.35,0624_nse_dnn_0.35_car_10_n02814533_81455.png
shufflenet_test,1,625,NaN,truck,car,0.03,0625_nse_dnn_0.03_car_10_n04285008_6278.png
shufflenet_test,1,626,NaN,truck,truck,0.05,0626_nse_dnn_0.05_truck_10_n04467665_3612.png
shufflenet_test,1,627,NaN,bottle,bottle,0.10,0627_nse_dnn_0.10_bottle_10_n03983396_10251.png
shufflenet_test,1,628,NaN,clock,dog,0.60,0628_nse_dnn_0.60_dog_10_n02086646_6407.png
shufflenet_test,1,629,NaN,bottle,oven,0.35,0629_nse_dnn_0.35_oven_10_n04111531_21404.png
shufflenet_test,1,630,NaN,bottle,bottle,0.05,0630_nse_dnn_0.05_bottle_10_n03983396_3185.png
shufflenet_test,1,631,NaN,cat,elephant,0.05,0631_nse_dnn_0.05_elephant_10_n02504013_13766.png
shufflenet_test,1,632,NaN,cat,bird,0.05,0632_nse_dnn_0.05_bird_10_n01514859_10633.png
shufflenet_test,1,633,NaN,elephant,chair,0.05,0633_nse_dnn_0.05_chair_10_n03376595_2351.png
shufflenet_test,1,634,NaN,bird,bird,0.00,0634_nse_dnn_0.00_bird_10_n02009912_31837.png
shufflenet_test,1,635,NaN,clock,dog,0.90,0635_nse_dnn_0.90_dog_10_n02110958_8971.png
shufflenet_test,1,636,NaN,bottle,dog,0.20,0636_nse_dnn_0.20_dog_10_n02113799_3680.png
shufflenet_test,1,637,NaN,bottle,airplane,0.35,0637_nse_dnn_0.35_airplane_10_n02690373_6491.png
shufflenet_test,1,638,NaN,clock,clock,0.60,0638_nse_dnn_0.60_clock_10_n04548280_1438.png
shufflenet_test,1,639,NaN,airplane,airplane,0.05,0639_nse_dnn_0.05_airplane_10_n02690373_2981.png
shufflenet_test,1,640,NaN,truck,car,0.03,0640_nse_dnn_0.03_car_10_n04285008_7155.png
shufflenet_test,1,641,NaN,keyboard,chair,0.20,0641_nse_dnn_0.20_chair_10_n03376595_5909.png
shufflenet_test,1,642,NaN,clock,elephant,0.60,0642_nse_dnn_0.60_elephant_10_n02504013_5876.png
shufflenet_test,1,643,NaN,cat,cat,0.00,0643_nse_dnn_0.00_cat_10_n02125311_25104.png
shufflenet_test,1,644,NaN,clock,dog,0.90,0644_nse_dnn_0.90_dog_10_n02111277_11664.png
shufflenet_test,1,645,NaN,bottle,airplane,0.35,0645_nse_dnn_0.35_airplane_10_n02690373_2185.png
shufflenet_test,1,646,NaN,bear,bird,0.05,0646_nse_dnn_0.05_bird_10_n02017213_7721.png
shufflenet_test,1,647,NaN,truck,boat,0.05,0647_nse_dnn_0.05_boat_10_n03662601_25577.png
shufflenet_test,1,648,NaN,elephant,elephant,0.03,0648_nse_dnn_0.03_elephant_10_n02504013_8028.png
shufflenet_test,1,649,NaN,clock,airplane,0.60,0649_nse_dnn_0.60_airplane_10_n02690373_6665.png
shufflenet_test,1,650,NaN,clock,bird,0.60,0650_nse_dnn_0.60_bird_10_n02011460_2611.png
shufflenet_test,1,651,NaN,cat,knife,0.10,0651_nse_dnn_0.10_knife_10_n03041632_90407.png
shufflenet_test,1,652,NaN,airplane,airplane,0.03,0652_nse_dnn_0.03_airplane_10_n02690373_10817.png
shufflenet_test,1,653,NaN,bird,bird,0.00,0653_nse_dnn_0.00_bird_10_n02051845_15350.png
shufflenet_test,1,654,NaN,bottle,knife,0.60,0654_nse_dnn_0.60_knife_10_n03041632_4269.png
shufflenet_test,1,655,NaN,bottle,bottle,0.03,0655_nse_dnn_0.03_bottle_10_n04560804_11426.png
shufflenet_test,1,656,NaN,bottle,bicycle,0.20,0656_nse_dnn_0.20_bicycle_10_n03792782_7050.png
shufflenet_test,1,657,NaN,elephant,elephant,0.05,0657_nse_dnn_0.05_elephant_10_n02504013_9144.png
shufflenet_test,1,658,NaN,clock,bear,0.90,0658_nse_dnn_0.90_bear_10_n02134418_5630.png
shufflenet_test,1,659,NaN,bear,bear,0.00,0659_nse_dnn_0.00_bear_10_n02133161_16147.png
shufflenet_test,1,660,NaN,clock,keyboard,0.05,0660_nse_dnn_0.05_keyboard_10_n03085013_6857.png
shufflenet_test,1,661,NaN,clock,car,0.90,0661_nse_dnn_0.90_car_10_n02814533_72079.png
shufflenet_test,1,662,NaN,chair,chair,0.00,0662_nse_dnn_0.00_chair_10_n04429376_5770.png
shufflenet_test,1,663,NaN,cat,dog,0.05,0663_nse_dnn_0.05_dog_10_n02112706_5500.png
shufflenet_test,1,664,NaN,bottle,boat,0.60,0664_nse_dnn_0.60_boat_10_n03662601_32391.png
shufflenet_test,1,665,NaN,clock,truck,0.20,0665_nse_dnn_0.20_truck_10_n03796401_16046.png
shufflenet_test,1,666,NaN,bottle,bottle,0.35,0666_nse_dnn_0.35_bottle_10_n04557648_310.png
shufflenet_test,1,667,NaN,chair,chair,0.00,0667_nse_dnn_0.00_chair_10_n04429376_14995.png
shufflenet_test,1,668,NaN,elephant,oven,0.05,0668_nse_dnn_0.05_oven_10_n04111531_24096.png
shufflenet_test,1,669,NaN,bottle,bird,0.03,0669_nse_dnn_0.03_bird_10_n01855672_12414.png
shufflenet_test,1,670,NaN,clock,chair,0.90,0670_nse_dnn_0.90_chair_10_n03376595_4887.png
shufflenet_test,1,671,NaN,bottle,bottle,0.20,0671_nse_dnn_0.20_bottle_10_n04557648_11992.png
shufflenet_test,1,672,NaN,bottle,cat,0.20,0672_nse_dnn_0.20_cat_10_n02124075_951.png
shufflenet_test,1,673,NaN,bottle,chair,0.10,0673_nse_dnn_0.10_chair_10_n04099969_8647.png
shufflenet_test,1,674,NaN,bottle,bottle,0.00,0674_nse_dnn_0.00_bottle_10_n04591713_2808.png
shufflenet_test,1,675,NaN,bottle,airplane,0.20,0675_nse_dnn_0.20_airplane_10_n02690373_15097.png
shufflenet_test,1,676,NaN,boat,knife,0.00,0676_nse_dnn_0.00_knife_10_n03041632_62810.png
shufflenet_test,1,677,NaN,bottle,airplane,0.20,0677_nse_dnn_0.20_airplane_10_n02690373_1441.png
shufflenet_test,1,678,NaN,clock,clock,0.90,0678_nse_dnn_0.90_clock_10_n04548280_942.png
shufflenet_test,1,679,NaN,cat,bear,0.10,0679_nse_dnn_0.10_bear_10_n02133161_4060.png
shufflenet_test,1,680,NaN,chair,chair,0.03,0680_nse_dnn_0.03_chair_10_n03376595_8227.png
shufflenet_test,1,681,NaN,bottle,boat,0.20,0681_nse_dnn_0.20_boat_10_n02951358_28889.png
shufflenet_test,1,682,NaN,boat,boat,0.00,0682_nse_dnn_0.00_boat_10_n04273569_1141.png
shufflenet_test,1,683,NaN,clock,dog,0.00,0683_nse_dnn_0.00_dog_10_n02098105_5905.png
shufflenet_test,1,684,NaN,bottle,bird,0.35,0684_nse_dnn_0.35_bird_10_n01534433_12864.png
shufflenet_test,1,685,NaN,keyboard,keyboard,0.00,0685_nse_dnn_0.00_keyboard_10_n04505470_6847.png
shufflenet_test,1,686,NaN,bottle,car,0.60,0686_nse_dnn_0.60_car_10_n02814533_92286.png
shufflenet_test,1,687,NaN,clock,clock,0.05,0687_nse_dnn_0.05_clock_10_n02708093_3462.png
shufflenet_test,1,688,NaN,elephant,elephant,0.00,0688_nse_dnn_0.00_elephant_10_n02504013_3602.png
shufflenet_test,1,689,NaN,cat,clock,0.20,0689_nse_dnn_0.20_clock_10_n02708093_2800.png
shufflenet_test,1,690,NaN,chair,bottle,0.03,0690_nse_dnn_0.03_bottle_10_n03983396_4627.png
shufflenet_test,1,691,NaN,bottle,elephant,0.60,0691_nse_dnn_0.60_elephant_10_n02504458_6835.png
shufflenet_test,1,692,NaN,cat,bicycle,0.10,0692_nse_dnn_0.10_bicycle_10_n02835271_7594.png
shufflenet_test,1,693,NaN,dog,oven,0.10,0693_nse_dnn_0.10_oven_10_n04111531_538.png
shufflenet_test,1,694,NaN,elephant,elephant,0.03,0694_nse_dnn_0.03_elephant_10_n02504013_10909.png
shufflenet_test,1,695,NaN,clock,boat,0.90,0695_nse_dnn_0.90_boat_10_n03344393_771.png
shufflenet_test,1,696,NaN,bottle,boat,0.10,0696_nse_dnn_0.10_boat_10_n02951358_15413.png
shufflenet_test,1,697,NaN,clock,cat,0.60,0697_nse_dnn_0.60_cat_10_n02124075_12176.png
shufflenet_test,1,698,NaN,bottle,airplane,0.60,0698_nse_dnn_0.60_airplane_10_n02690373_5197.png
shufflenet_test,1,699,NaN,bicycle,bicycle,0.00,0699_nse_dnn_0.00_bicycle_10_n03792782_7101.png
shufflenet_test,1,700,NaN,bottle,bicycle,0.60,0700_nse_dnn_0.60_bicycle_10_n02835271_358.png
shufflenet_test,1,701,NaN,bear,dog,0.03,0701_nse_dnn_0.03_dog_10_n02092002_15319.png
shufflenet_test,1,702,NaN,bottle,airplane,0.10,0702_nse_dnn_0.10_airplane_10_n02690373_3818.png
shufflenet_test,1,703,NaN,dog,dog,0.10,0703_nse_dnn_0.10_dog_10_n02097130_7349.png
shufflenet_test,1,704,NaN,dog,elephant,0.20,0704_nse_dnn_0.20_elephant_10_n02504013_7210.png
shufflenet_test,1,705,NaN,dog,clock,0.20,0705_nse_dnn_0.20_clock_10_n04548280_1109.png
shufflenet_test,1,706,NaN,bottle,boat,0.35,0706_nse_dnn_0.35_boat_10_n03344393_4143.png
shufflenet_test,1,707,NaN,clock,oven,0.60,0707_nse_dnn_0.60_oven_10_n04111531_326.png
shufflenet_test,1,708,NaN,knife,bottle,0.35,0708_nse_dnn_0.35_bottle_10_n04557648_3529.png
shufflenet_test,1,709,NaN,clock,knife,0.90,0709_nse_dnn_0.90_knife_10_n03041632_27960.png
shufflenet_test,1,710,NaN,elephant,elephant,0.00,0710_nse_dnn_0.00_elephant_10_n02504458_8889.png
shufflenet_test,1,711,NaN,keyboard,knife,0.05,0711_nse_dnn_0.05_knife_10_n03041632_38610.png
shufflenet_test,1,712,NaN,bear,bear,0.00,0712_nse_dnn_0.00_bear_10_n02132136_2263.png
shufflenet_test,1,713,NaN,bicycle,bicycle,0.03,0713_nse_dnn_0.03_bicycle_10_n02835271_6167.png
shufflenet_test,1,714,NaN,bird,bird,0.00,0714_nse_dnn_0.00_bird_10_n02027492_597.png
shufflenet_test,1,715,NaN,bottle,boat,0.60,0715_nse_dnn_0.60_boat_10_n03662601_7585.png
shufflenet_test,1,716,NaN,chair,knife,0.10,0716_nse_dnn_0.10_knife_10_n03041632_22738.png
shufflenet_test,1,717,NaN,clock,clock,0.10,0717_nse_dnn_0.10_clock_10_n03196217_3140.png
shufflenet_test,1,718,NaN,clock,truck,0.90,0718_nse_dnn_0.90_truck_10_n03417042_27988.png
shufflenet_test,1,719,NaN,bottle,bear,0.60,0719_nse_dnn_0.60_bear_10_n02133161_97.png
shufflenet_test,1,720,NaN,cat,bottle,0.10,0720_nse_dnn_0.10_bottle_10_n04579145_815.png
shufflenet_test,1,721,NaN,clock,clock,0.05,0721_nse_dnn_0.05_clock_10_n03196217_8792.png
shufflenet_test,1,722,NaN,clock,clock,0.90,0722_nse_dnn_0.90_clock_10_n04548280_2827.png
shufflenet_test,1,723,NaN,bottle,knife,0.35,0723_nse_dnn_0.35_knife_10_n03041632_2153.png
shufflenet_test,1,724,NaN,bottle,car,0.60,0724_nse_dnn_0.60_car_10_n04285008_5078.png
shufflenet_test,1,725,NaN,bottle,airplane,0.60,0725_nse_dnn_0.60_airplane_10_n02690373_3377.png
shufflenet_test,1,726,NaN,keyboard,bicycle,0.20,0726_nse_dnn_0.20_bicycle_10_n02835271_22623.png
shufflenet_test,1,727,NaN,airplane,boat,0.00,0727_nse_dnn_0.00_boat_10_n03344393_1125.png
shufflenet_test,1,728,NaN,keyboard,keyboard,0.10,0728_nse_dnn_0.10_keyboard_10_n04505470_4507.png
shufflenet_test,1,729,NaN,knife,knife,0.00,0729_nse_dnn_0.00_knife_10_n03041632_25512.png
shufflenet_test,1,730,NaN,bottle,airplane,0.35,0730_nse_dnn_0.35_airplane_10_n02690373_8524.png
shufflenet_test,1,731,NaN,bottle,airplane,0.10,0731_nse_dnn_0.10_airplane_10_n02690373_2521.png
shufflenet_test,1,732,NaN,bottle,clock,0.35,0732_nse_dnn_0.35_clock_10_n02708093_4415.png
shufflenet_test,1,733,NaN,cat,bear,0.10,0733_nse_dnn_0.10_bear_10_n02132136_7253.png
shufflenet_test,1,734,NaN,bottle,knife,0.20,0734_nse_dnn_0.20_knife_10_n03041632_7448.png
shufflenet_test,1,735,NaN,bottle,dog,0.20,0735_nse_dnn_0.20_dog_10_n02110185_10879.png
shufflenet_test,1,736,NaN,keyboard,keyboard,0.00,0736_nse_dnn_0.00_keyboard_10_n03085013_23289.png
shufflenet_test,1,737,NaN,bottle,chair,0.35,0737_nse_dnn_0.35_chair_10_n04099969_6425.png
shufflenet_test,1,738,NaN,keyboard,keyboard,0.03,0738_nse_dnn_0.03_keyboard_10_n03085013_23697.png
shufflenet_test,1,739,NaN,bear,bear,0.00,0739_nse_dnn_0.00_bear_10_n02133161_11816.png
shufflenet_test,1,740,NaN,bottle,dog,0.35,0740_nse_dnn_0.35_dog_10_n02097474_10860.png
shufflenet_test,1,741,NaN,car,car,0.05,0741_nse_dnn_0.05_car_10_n02814533_59264.png
shufflenet_test,1,742,NaN,boat,boat,0.03,0742_nse_dnn_0.03_boat_10_n03344393_6577.png
shufflenet_test,1,743,NaN,clock,car,0.60,0743_nse_dnn_0.60_car_10_n04285008_12501.png
shufflenet_test,1,744,NaN,clock,dog,0.90,0744_nse_dnn_0.90_dog_10_n02105505_6715.png
shufflenet_test,1,745,NaN,clock,elephant,0.90,0745_nse_dnn_0.90_elephant_10_n02504458_12555.png
shufflenet_test,1,746,NaN,bottle,cat,0.35,0746_nse_dnn_0.35_cat_10_n02123159_5950.png
shufflenet_test,1,747,NaN,clock,bird,0.90,0747_nse_dnn_0.90_bird_10_n02018795_5868.png
shufflenet_test,1,748,NaN,cat,dog,0.05,0748_nse_dnn_0.05_dog_10_n02086646_4881.png
shufflenet_test,1,749,NaN,bottle,chair,0.60,0749_nse_dnn_0.60_chair_10_n04099969_3052.png
shufflenet_test,1,750,NaN,truck,truck,0.03,0750_nse_dnn_0.03_truck_10_n03796401_6444.png
shufflenet_test,1,751,NaN,bottle,truck,0.05,0751_nse_dnn_0.05_truck_10_n03417042_94.png
shufflenet_test,1,752,NaN,bottle,knife,0.35,0752_nse_dnn_0.35_knife_10_n03041632_54732.png
shufflenet_test,1,753,NaN,bottle,knife,0.10,0753_nse_dnn_0.10_knife_10_n03041632_29862.png
shufflenet_test,1,754,NaN,bottle,bird,0.60,0754_nse_dnn_0.60_bird_10_n01530575_280.png
shufflenet_test,1,755,NaN,clock,boat,0.00,0755_nse_dnn_0.00_boat_10_n03662601_8398.png
shufflenet_test,1,756,NaN,chair,chair,0.05,0756_nse_dnn_0.05_chair_10_n04099969_5242.png
shufflenet_test,1,757,NaN,bottle,bicycle,0.60,0757_nse_dnn_0.60_bicycle_10_n02835271_5821.png
shufflenet_test,1,758,NaN,clock,bicycle,0.90,0758_nse_dnn_0.90_bicycle_10_n03792782_37794.png
shufflenet_test,1,759,NaN,bicycle,bicycle,0.10,0759_nse_dnn_0.10_bicycle_10_n02835271_8324.png
shufflenet_test,1,760,NaN,bottle,chair,0.10,0760_nse_dnn_0.10_chair_10_n04099969_3393.png
shufflenet_test,1,761,NaN,clock,bottle,0.90,0761_nse_dnn_0.90_bottle_10_n03937543_4463.png
shufflenet_test,1,762,NaN,truck,truck,0.05,0762_nse_dnn_0.05_truck_10_n03796401_13349.png
shufflenet_test,1,763,NaN,chair,chair,0.03,0763_nse_dnn_0.03_chair_10_n04099969_5453.png
shufflenet_test,1,764,NaN,chair,chair,0.05,0764_nse_dnn_0.05_chair_10_n02791124_7142.png
shufflenet_test,1,765,NaN,clock,oven,0.00,0765_nse_dnn_0.00_oven_10_n04111531_3270.png
shufflenet_test,1,766,NaN,cat,oven,0.20,0766_nse_dnn_0.20_oven_10_n04111531_5727.png
shufflenet_test,1,767,NaN,chair,knife,0.00,0767_nse_dnn_0.00_knife_10_n03041632_19614.png
shufflenet_test,1,768,NaN,bottle,bicycle,0.35,0768_nse_dnn_0.35_bicycle_10_n02835271_24131.png
shufflenet_test,1,769,NaN,chair,bird,0.00,0769_nse_dnn_0.00_bird_10_n01820546_4535.png
shufflenet_test,1,770,NaN,bottle,clock,0.20,0770_nse_dnn_0.20_clock_10_n03196217_5827.png
shufflenet_test,1,771,NaN,clock,car,0.90,0771_nse_dnn_0.90_car_10_n03100240_1065.png
shufflenet_test,1,772,NaN,bottle,truck,0.35,0772_nse_dnn_0.35_truck_10_n04467665_47602.png
shufflenet_test,1,773,NaN,clock,bicycle,0.90,0773_nse_dnn_0.90_bicycle_10_n02835271_9116.png
shufflenet_test,1,774,NaN,truck,car,0.10,0774_nse_dnn_0.10_car_10_n03100240_4071.png
shufflenet_test,1,775,NaN,clock,bird,0.90,0775_nse_dnn_0.90_bird_10_n01843383_4896.png
shufflenet_test,1,776,NaN,bottle,elephant,0.35,0776_nse_dnn_0.35_elephant_10_n02504013_20042.png
shufflenet_test,1,777,NaN,clock,clock,0.90,0777_nse_dnn_0.90_clock_10_n04548280_3053.png
shufflenet_test,1,778,NaN,oven,oven,0.03,0778_nse_dnn_0.03_oven_10_n04111531_7449.png
shufflenet_test,1,779,NaN,cat,truck,0.10,0779_nse_dnn_0.10_truck_10_n03417042_5380.png
shufflenet_test,1,780,NaN,keyboard,bird,0.10,0780_nse_dnn_0.10_bird_10_n02002556_5468.png
shufflenet_test,1,781,NaN,bird,bird,0.03,0781_nse_dnn_0.03_bird_10_n02025239_19864.png
shufflenet_test,1,782,NaN,truck,bicycle,0.03,0782_nse_dnn_0.03_bicycle_10_n03792782_3299.png
shufflenet_test,1,783,NaN,clock,boat,0.03,0783_nse_dnn_0.03_boat_10_n03344393_8545.png
shufflenet_test,1,784,NaN,elephant,bird,0.05,0784_nse_dnn_0.05_bird_10_n01820546_3203.png
shufflenet_test,1,785,NaN,bicycle,knife,0.03,0785_nse_dnn_0.03_knife_10_n03041632_29580.png
shufflenet_test,1,786,NaN,clock,bird,0.60,0786_nse_dnn_0.60_bird_10_n01530575_10612.png
shufflenet_test,1,787,NaN,bottle,cat,0.35,0787_nse_dnn_0.35_cat_10_n02123159_3299.png
shufflenet_test,1,788,NaN,cat,bear,0.10,0788_nse_dnn_0.10_bear_10_n02134418_1749.png
shufflenet_test,1,789,NaN,elephant,elephant,0.03,0789_nse_dnn_0.03_elephant_10_n02504458_2135.png
shufflenet_test,1,790,NaN,cat,keyboard,0.10,0790_nse_dnn_0.10_keyboard_10_n04505470_4521.png
shufflenet_test,1,791,NaN,bottle,keyboard,0.60,0791_nse_dnn_0.60_keyboard_10_n03085013_23790.png
shufflenet_test,1,792,NaN,clock,bottle,0.60,0792_nse_dnn_0.60_bottle_10_n04579145_2485.png
shufflenet_test,1,793,NaN,dog,elephant,0.10,0793_nse_dnn_0.10_elephant_10_n02504458_2054.png
shufflenet_test,1,794,NaN,truck,truck,0.00,0794_nse_dnn_0.00_truck_10_n03417042_943.png
shufflenet_test,1,795,NaN,bear,bear,0.03,0795_nse_dnn_0.03_bear_10_n02132136_9735.png
shufflenet_test,1,796,NaN,bottle,bird,0.35,0796_nse_dnn_0.35_bird_10_n01819313_358.png
shufflenet_test,1,797,NaN,boat,boat,0.00,0797_nse_dnn_0.00_boat_10_n03662601_31508.png
shufflenet_test,1,798,NaN,bottle,airplane,0.20,0798_nse_dnn_0.20_airplane_10_n02690373_4201.png
shufflenet_test,1,799,NaN,bottle,cat,0.20,0799_nse_dnn_0.20_cat_10_n02124075_12622.png
shufflenet_test,1,800,NaN,bottle,bottle,0.20,0800_nse_dnn_0.20_bottle_10_n04560804_9981.png
shufflenet_test,1,801,NaN,airplane,airplane,0.00,0801_nse_dnn_0.00_airplane_10_n02690373_17722.png
shufflenet_test,1,802,NaN,cat,bear,0.05,0802_nse_dnn_0.05_bear_10_n02132136_10412.png
shufflenet_test,1,803,NaN,cat,bear,0.10,0803_nse_dnn_0.10_bear_10_n02133161_431.png
shufflenet_test,1,804,NaN,bottle,knife,0.60,0804_nse_dnn_0.60_knife_10_n03041632_2468.png
shufflenet_test,1,805,NaN,bicycle,bicycle,0.00,0805_nse_dnn_0.00_bicycle_10_n02835271_9297.png
shufflenet_test,1,806,NaN,bottle,airplane,0.10,0806_nse_dnn_0.10_airplane_10_n02690373_10285.png
shufflenet_test,1,807,NaN,car,car,0.00,0807_nse_dnn_0.00_car_10_n03100240_9639.png
shufflenet_test,1,808,NaN,clock,elephant,0.90,0808_nse_dnn_0.90_elephant_10_n02504458_4139.png
shufflenet_test,1,809,NaN,clock,clock,0.90,0809_nse_dnn_0.90_clock_10_n02708093_6967.png
shufflenet_test,1,810,NaN,clock,elephant,0.03,0810_nse_dnn_0.03_elephant_10_n02504013_2385.png
shufflenet_test,1,811,NaN,clock,airplane,0.90,0811_nse_dnn_0.90_airplane_10_n02690373_5328.png
shufflenet_test,1,812,NaN,clock,boat,0.05,0812_nse_dnn_0.05_boat_10_n03344393_7433.png
shufflenet_test,1,813,NaN,elephant,elephant,0.00,0813_nse_dnn_0.00_elephant_10_n02504013_5397.png
shufflenet_test,1,814,NaN,elephant,elephant,0.00,0814_nse_dnn_0.00_elephant_10_n02504458_6424.png
shufflenet_test,1,815,NaN,clock,oven,0.60,0815_nse_dnn_0.60_oven_10_n04111531_1752.png
shufflenet_test,1,816,NaN,bottle,boat,0.20,0816_nse_dnn_0.20_boat_10_n04273569_22495.png
shufflenet_test,1,817,NaN,clock,bear,0.90,0817_nse_dnn_0.90_bear_10_n02133161_10190.png
shufflenet_test,1,818,NaN,chair,keyboard,0.05,0818_nse_dnn_0.05_keyboard_10_n03085013_24577.png
shufflenet_test,1,819,NaN,bicycle,bicycle,0.00,0819_nse_dnn_0.00_bicycle_10_n03792782_13608.png
shufflenet_test,1,820,NaN,keyboard,keyboard,0.03,0820_nse_dnn_0.03_keyboard_10_n03085013_24309.png
shufflenet_test,1,821,NaN,keyboard,chair,0.20,0821_nse_dnn_0.20_chair_10_n03376595_9900.png
shufflenet_test,1,822,NaN,elephant,knife,0.05,0822_nse_dnn_0.05_knife_10_n03041632_33225.png
shufflenet_test,1,823,NaN,bottle,elephant,0.60,0823_nse_dnn_0.60_elephant_10_n02504013_1132.png
shufflenet_test,1,824,NaN,bottle,oven,0.60,0824_nse_dnn_0.60_oven_10_n04111531_13391.png
shufflenet_test,1,825,NaN,chair,chair,0.00,0825_nse_dnn_0.00_chair_10_n04099969_14288.png
shufflenet_test,1,826,NaN,truck,truck,0.03,0826_nse_dnn_0.03_truck_10_n04467665_2098.png
shufflenet_test,1,827,NaN,car,car,0.00,0827_nse_dnn_0.00_car_10_n03100240_4348.png
shufflenet_test,1,828,NaN,bird,bird,0.00,0828_nse_dnn_0.00_bird_10_n02033041_2320.png
shufflenet_test,1,829,NaN,bottle,car,0.10,0829_nse_dnn_0.10_car_10_n04285008_810.png
shufflenet_test,1,830,NaN,bottle,boat,0.35,0830_nse_dnn_0.35_boat_10_n02951358_16285.png
shufflenet_test,1,831,NaN,bear,bear,0.05,0831_nse_dnn_0.05_bear_10_n02133161_547.png
shufflenet_test,1,832,NaN,bottle,bottle,0.60,0832_nse_dnn_0.60_bottle_10_n04591713_5290.png
shufflenet_test,1,833,NaN,clock,clock,0.03,0833_nse_dnn_0.03_clock_10_n02708093_742.png
shufflenet_test,1,834,NaN,boat,knife,0.05,0834_nse_dnn_0.05_knife_10_n03041632_11797.png
shufflenet_test,1,835,NaN,truck,truck,0.00,0835_nse_dnn_0.00_truck_10_n03417042_12588.png
shufflenet_test,1,836,NaN,bottle,bird,0.20,0836_nse_dnn_0.20_bird_10_n02011460_13026.png
shufflenet_test,1,837,NaN,bottle,bottle,0.35,0837_nse_dnn_0.35_bottle_10_n03983396_10174.png
shufflenet_test,1,838,NaN,cat,bird,0.10,0838_nse_dnn_0.10_bird_10_n02051845_33968.png
shufflenet_test,1,839,NaN,bottle,knife,0.60,0839_nse_dnn_0.60_knife_10_n03041632_13645.png
shufflenet_test,1,840,NaN,cat,cat,0.00,0840_nse_dnn_0.00_cat_10_n02123159_5799.png
shufflenet_test,1,841,NaN,clock,elephant,0.60,0841_nse_dnn_0.60_elephant_10_n02504458_12368.png
shufflenet_test,1,842,NaN,keyboard,keyboard,0.05,0842_nse_dnn_0.05_keyboard_10_n03085013_19504.png
shufflenet_test,1,843,NaN,clock,knife,0.60,0843_nse_dnn_0.60_knife_10_n03041632_14766.png
shufflenet_test,1,844,NaN,bottle,airplane,0.10,0844_nse_dnn_0.10_airplane_10_n02690373_3753.png
shufflenet_test,1,845,NaN,chair,chair,0.00,0845_nse_dnn_0.00_chair_10_n03376595_11352.png
shufflenet_test,1,846,NaN,boat,boat,0.05,0846_nse_dnn_0.05_boat_10_n03344393_2937.png
shufflenet_test,1,847,NaN,dog,bear,0.00,0847_nse_dnn_0.00_bear_10_n02132136_25897.png
shufflenet_test,1,848,NaN,bicycle,oven,0.05,0848_nse_dnn_0.05_oven_10_n04111531_2630.png
shufflenet_test,1,849,NaN,bear,bear,0.03,0849_nse_dnn_0.03_bear_10_n02132136_50.png
shufflenet_test,1,850,NaN,clock,chair,0.05,0850_nse_dnn_0.05_chair_10_n04099969_2694.png
shufflenet_test,1,851,NaN,clock,clock,0.05,0851_nse_dnn_0.05_clock_10_n03196217_3868.png
shufflenet_test,1,852,NaN,bottle,airplane,0.60,0852_nse_dnn_0.60_airplane_10_n02690373_6285.png
shufflenet_test,1,853,NaN,bottle,bird,0.35,0853_nse_dnn_0.35_bird_10_n01833805_6289.png
shufflenet_test,1,854,NaN,clock,clock,0.60,0854_nse_dnn_0.60_clock_10_n02708093_1100.png
shufflenet_test,1,855,NaN,truck,truck,0.10,0855_nse_dnn_0.10_truck_10_n03796401_21198.png
shufflenet_test,1,856,NaN,clock,elephant,0.90,0856_nse_dnn_0.90_elephant_10_n02504013_1255.png
shufflenet_test,1,857,NaN,cat,bicycle,0.20,0857_nse_dnn_0.20_bicycle_10_n03792782_11417.png
shufflenet_test,1,858,NaN,boat,boat,0.00,0858_nse_dnn_0.00_boat_10_n04612504_7446.png
shufflenet_test,1,859,NaN,clock,bicycle,0.90,0859_nse_dnn_0.90_bicycle_10_n03792782_30942.png
shufflenet_test,1,860,NaN,clock,bear,0.90,0860_nse_dnn_0.90_bear_10_n02132136_4636.png
shufflenet_test,1,861,NaN,airplane,airplane,0.00,0861_nse_dnn_0.00_airplane_10_n02690373_563.png
shufflenet_test,1,862,NaN,dog,oven,0.10,0862_nse_dnn_0.10_oven_10_n04111531_7600.png
shufflenet_test,1,863,NaN,keyboard,keyboard,0.05,0863_nse_dnn_0.05_keyboard_10_n04505470_1043.png
shufflenet_test,1,864,NaN,cat,cat,0.03,0864_nse_dnn_0.03_cat_10_n02123394_6828.png
shufflenet_test,1,865,NaN,bottle,airplane,0.60,0865_nse_dnn_0.60_airplane_10_n02690373_9001.png
shufflenet_test,1,866,NaN,bottle,knife,0.90,0866_nse_dnn_0.90_knife_10_n03041632_7116.png
shufflenet_test,1,867,NaN,car,car,0.03,0867_nse_dnn_0.03_car_10_n03100240_15979.png
shufflenet_test,1,868,NaN,bottle,bear,0.20,0868_nse_dnn_0.20_bear_10_n02134418_289.png
shufflenet_test,1,869,NaN,airplane,airplane,0.05,0869_nse_dnn_0.05_airplane_10_n02690373_9535.png
shufflenet_test,1,870,NaN,airplane,oven,0.05,0870_nse_dnn_0.05_oven_10_n04111531_22872.png
shufflenet_test,1,871,NaN,oven,chair,0.00,0871_nse_dnn_0.00_chair_10_n03376595_6012.png
shufflenet_test,1,872,NaN,oven,chair,0.05,0872_nse_dnn_0.05_chair_10_n02791124_4595.png
shufflenet_test,1,873,NaN,knife,knife,0.00,0873_nse_dnn_0.00_knife_10_n03041632_45636.png
shufflenet_test,1,874,NaN,bottle,oven,0.20,0874_nse_dnn_0.20_oven_10_n04111531_8144.png
shufflenet_test,1,875,NaN,bottle,chair,0.20,0875_nse_dnn_0.20_chair_10_n04429376_19459.png
shufflenet_test,1,876,NaN,bottle,bear,0.10,0876_nse_dnn_0.10_bear_10_n02134084_11993.png
shufflenet_test,1,877,NaN,bottle,bicycle,0.35,0877_nse_dnn_0.35_bicycle_10_n02835271_845.png
shufflenet_test,1,878,NaN,bottle,knife,0.60,0878_nse_dnn_0.60_knife_10_n03041632_16826.png
shufflenet_test,1,879,NaN,bottle,bottle,0.20,0879_nse_dnn_0.20_bottle_10_n04557648_2075.png
shufflenet_test,1,880,NaN,bottle,cat,0.60,0880_nse_dnn_0.60_cat_10_n02123159_6596.png
shufflenet_test,1,881,NaN,cat,cat,0.05,0881_nse_dnn_0.05_cat_10_n02124075_8799.png
shufflenet_test,1,882,NaN,dog,dog,0.00,0882_nse_dnn_0.00_dog_10_n02107683_6800.png
shufflenet_test,1,883,NaN,keyboard,keyboard,0.03,0883_nse_dnn_0.03_keyboard_10_n04505470_4983.png
shufflenet_test,1,884,NaN,cat,cat,0.05,0884_nse_dnn_0.05_cat_10_n02123045_5381.png
shufflenet_test,1,885,NaN,dog,keyboard,0.10,0885_nse_dnn_0.10_keyboard_10_n03085013_2073.png
shufflenet_test,1,886,NaN,knife,keyboard,0.35,0886_nse_dnn_0.35_keyboard_10_n04505470_2141.png
shufflenet_test,1,887,NaN,clock,elephant,0.90,0887_nse_dnn_0.90_elephant_10_n02504013_1125.png
shufflenet_test,1,888,NaN,bottle,elephant,0.60,0888_nse_dnn_0.60_elephant_10_n02504458_4824.png
shufflenet_test,1,889,NaN,bird,bird,0.00,0889_nse_dnn_0.00_bird_10_n01560419_2432.png
shufflenet_test,1,890,NaN,truck,truck,0.03,0890_nse_dnn_0.03_truck_10_n03417042_12874.png
shufflenet_test,1,891,NaN,bottle,knife,0.35,0891_nse_dnn_0.35_knife_10_n03041632_36390.png
shufflenet_test,1,892,NaN,clock,clock,0.03,0892_nse_dnn_0.03_clock_10_n04548280_9752.png
shufflenet_test,1,893,NaN,clock,knife,0.05,0893_nse_dnn_0.05_knife_10_n03041632_19098.png
shufflenet_test,1,894,NaN,bottle,keyboard,0.35,0894_nse_dnn_0.35_keyboard_10_n03085013_20784.png
shufflenet_test,1,895,NaN,boat,boat,0.05,0895_nse_dnn_0.05_boat_10_n04612504_15898.png
shufflenet_test,1,896,NaN,bottle,cat,0.35,0896_nse_dnn_0.35_cat_10_n02123159_3083.png
shufflenet_test,1,897,NaN,bottle,boat,0.03,0897_nse_dnn_0.03_boat_10_n02951358_512.png
shufflenet_test,1,898,NaN,airplane,bird,0.03,0898_nse_dnn_0.03_bird_10_n01843065_654.png
shufflenet_test,1,899,NaN,bottle,airplane,0.20,0899_nse_dnn_0.20_airplane_10_n02690373_4136.png
shufflenet_test,1,900,NaN,bottle,airplane,0.35,0900_nse_dnn_0.35_airplane_10_n02690373_3212.png
shufflenet_test,1,901,NaN,clock,bottle,0.90,0901_nse_dnn_0.90_bottle_10_n04560804_7375.png
shufflenet_test,1,902,NaN,bottle,bottle,0.35,0902_nse_dnn_0.35_bottle_10_n04591713_6138.png
shufflenet_test,1,903,NaN,bear,bear,0.03,0903_nse_dnn_0.03_bear_10_n02134084_16632.png
shufflenet_test,1,904,NaN,bottle,oven,0.10,0904_nse_dnn_0.10_oven_10_n04111531_12129.png
shufflenet_test,1,905,NaN,clock,bottle,0.90,0905_nse_dnn_0.90_bottle_10_n04579145_3830.png
shufflenet_test,1,906,NaN,clock,bird,0.90,0906_nse_dnn_0.90_bird_10_n01530575_310.png
shufflenet_test,1,907,NaN,boat,elephant,0.05,0907_nse_dnn_0.05_elephant_10_n02504458_2965.png
shufflenet_test,1,908,NaN,bottle,chair,0.60,0908_nse_dnn_0.60_chair_10_n02791124_5089.png
shufflenet_test,1,909,NaN,truck,car,0.05,0909_nse_dnn_0.05_car_10_n03100240_9000.png
shufflenet_test,1,910,NaN,clock,bear,0.90,0910_nse_dnn_0.90_bear_10_n02134418_4893.png
shufflenet_test,1,911,NaN,cat,cat,0.00,0911_nse_dnn_0.00_cat_10_n02124075_4116.png
shufflenet_test,1,912,NaN,bottle,bottle,0.03,0912_nse_dnn_0.03_bottle_10_n04560804_13279.png
shufflenet_test,1,913,NaN,bottle,bicycle,0.20,0913_nse_dnn_0.20_bicycle_10_n03792782_31101.png
shufflenet_test,1,914,NaN,cat,clock,0.10,0914_nse_dnn_0.10_clock_10_n03196217_5441.png
shufflenet_test,1,915,NaN,keyboard,clock,0.10,0915_nse_dnn_0.10_clock_10_n04548280_4738.png
shufflenet_test,1,916,NaN,cat,bicycle,0.10,0916_nse_dnn_0.10_bicycle_10_n03792782_11921.png
shufflenet_test,1,917,NaN,clock,bicycle,0.05,0917_nse_dnn_0.05_bicycle_10_n02835271_1530.png
shufflenet_test,1,918,NaN,airplane,airplane,0.00,0918_nse_dnn_0.00_airplane_10_n02690373_6031.png
shufflenet_test,1,919,NaN,bottle,bird,0.20,0919_nse_dnn_0.20_bird_10_n02033041_17119.png
shufflenet_test,1,920,NaN,clock,oven,0.60,0920_nse_dnn_0.60_oven_10_n04111531_9915.png
shufflenet_test,1,921,NaN,bicycle,bicycle,0.00,0921_nse_dnn_0.00_bicycle_10_n02835271_8617.png
shufflenet_test,1,922,NaN,clock,keyboard,0.60,0922_nse_dnn_0.60_keyboard_10_n03085013_23718.png
shufflenet_test,1,923,NaN,cat,bottle,0.10,0923_nse_dnn_0.10_bottle_10_n03937543_1290.png
shufflenet_test,1,924,NaN,bottle,cat,0.60,0924_nse_dnn_0.60_cat_10_n02125311_22037.png
shufflenet_test,1,925,NaN,bottle,chair,0.35,0925_nse_dnn_0.35_chair_10_n03376595_7515.png
shufflenet_test,1,926,NaN,bottle,chair,0.60,0926_nse_dnn_0.60_chair_10_n03376595_8995.png
shufflenet_test,1,927,NaN,bottle,boat,0.05,0927_nse_dnn_0.05_boat_10_n03662601_19809.png
shufflenet_test,1,928,NaN,bottle,bicycle,0.20,0928_nse_dnn_0.20_bicycle_10_n03792782_50446.png
shufflenet_test,1,929,NaN,bottle,airplane,0.60,0929_nse_dnn_0.60_airplane_10_n02690373_7115.png
shufflenet_test,1,930,NaN,airplane,bear,0.00,0930_nse_dnn_0.00_bear_10_n02134084_12389.png
shufflenet_test,1,931,NaN,clock,dog,0.90,0931_nse_dnn_0.90_dog_10_n02105162_10475.png
shufflenet_test,1,932,NaN,clock,oven,0.03,0932_nse_dnn_0.03_oven_10_n04111531_11669.png
shufflenet_test,1,933,NaN,bottle,dog,0.60,0933_nse_dnn_0.60_dog_10_n02113023_6945.png
shufflenet_test,1,934,NaN,clock,bear,0.90,0934_nse_dnn_0.90_bear_10_n02133161_16103.png
shufflenet_test,1,935,NaN,bear,elephant,0.10,0935_nse_dnn_0.10_elephant_10_n02504013_7553.png
shufflenet_test,1,936,NaN,clock,bear,0.60,0936_nse_dnn_0.60_bear_10_n02133161_830.png
shufflenet_test,1,937,NaN,clock,knife,0.60,0937_nse_dnn_0.60_knife_10_n03041632_37618.png
shufflenet_test,1,938,NaN,cat,knife,0.20,0938_nse_dnn_0.20_knife_10_n03041632_46103.png
shufflenet_test,1,939,NaN,clock,clock,0.03,0939_nse_dnn_0.03_clock_10_n02708093_3213.png
shufflenet_test,1,940,NaN,bottle,truck,0.35,0940_nse_dnn_0.35_truck_10_n03417042_10751.png
shufflenet_test,1,941,NaN,bottle,bottle,0.60,0941_nse_dnn_0.60_bottle_10_n04591713_765.png
shufflenet_test,1,942,NaN,clock,oven,0.03,0942_nse_dnn_0.03_oven_10_n04111531_9474.png
shufflenet_test,1,943,NaN,bottle,truck,0.60,0943_nse_dnn_0.60_truck_10_n04467665_33099.png
shufflenet_test,1,944,NaN,clock,clock,0.03,0944_nse_dnn_0.03_clock_10_n04548280_4872.png
shufflenet_test,1,945,NaN,bottle,car,0.35,0945_nse_dnn_0.35_car_10_n02814533_16978.png
shufflenet_test,1,946,NaN,clock,keyboard,0.90,0946_nse_dnn_0.90_keyboard_10_n03085013_20152.png
shufflenet_test,1,947,NaN,bottle,car,0.20,0947_nse_dnn_0.20_car_10_n04285008_5788.png
shufflenet_test,1,948,NaN,clock,knife,0.90,0948_nse_dnn_0.90_knife_10_n03041632_41493.png
shufflenet_test,1,949,NaN,airplane,airplane,0.05,0949_nse_dnn_0.05_airplane_10_n02690373_1751.png
shufflenet_test,1,950,NaN,clock,keyboard,0.05,0950_nse_dnn_0.05_keyboard_10_n03085013_23865.png
shufflenet_test,1,951,NaN,cat,cat,0.05,0951_nse_dnn_0.05_cat_10_n02123045_10433.png
shufflenet_test,1,952,NaN,bicycle,chair,0.10,0952_nse_dnn_0.10_chair_10_n02791124_7335.png
shufflenet_test,1,953,NaN,bicycle,bicycle,0.03,0953_nse_dnn_0.03_bicycle_10_n02835271_3135.png
shufflenet_test,1,954,NaN,bottle,car,0.20,0954_nse_dnn_0.20_car_10_n02814533_7028.png
shufflenet_test,1,955,NaN,cat,oven,0.05,0955_nse_dnn_0.05_oven_10_n04111531_9314.png
shufflenet_test,1,956,NaN,keyboard,knife,0.10,0956_nse_dnn_0.10_knife_10_n03041632_43289.png
shufflenet_test,1,957,NaN,bottle,truck,0.20,0957_nse_dnn_0.20_truck_10_n03796401_3191.png
shufflenet_test,1,958,NaN,airplane,car,0.05,0958_nse_dnn_0.05_car_10_n03100240_9305.png
shufflenet_test,1,959,NaN,bottle,bicycle,0.60,0959_nse_dnn_0.60_bicycle_10_n02835271_12799.png
shufflenet_test,1,960,NaN,bear,bottle,0.10,0960_nse_dnn_0.10_bottle_10_n04591713_1978.png
shufflenet_test,1,961,NaN,bottle,truck,0.10,0961_nse_dnn_0.10_truck_10_n04467665_68821.png
shufflenet_test,1,962,NaN,bottle,bear,0.35,0962_nse_dnn_0.35_bear_10_n02133161_1205.png
shufflenet_test,1,963,NaN,elephant,elephant,0.03,0963_nse_dnn_0.03_elephant_10_n02504458_7822.png
shufflenet_test,1,964,NaN,bottle,bird,0.05,0964_nse_dnn_0.05_bird_10_n02027492_9899.png
shufflenet_test,1,965,NaN,clock,boat,0.05,0965_nse_dnn_0.05_boat_10_n02951358_34116.png
shufflenet_test,1,966,NaN,bottle,keyboard,0.20,0966_nse_dnn_0.20_keyboard_10_n03085013_7605.png
shufflenet_test,1,967,NaN,bottle,truck,0.60,0967_nse_dnn_0.60_truck_10_n03796401_7694.png
shufflenet_test,1,968,NaN,clock,boat,0.90,0968_nse_dnn_0.90_boat_10_n03662601_3913.png
shufflenet_test,1,969,NaN,clock,knife,0.00,0969_nse_dnn_0.00_knife_10_n03041632_52929.png
shufflenet_test,1,970,NaN,keyboard,bicycle,0.10,0970_nse_dnn_0.10_bicycle_10_n02835271_3619.png
shufflenet_test,1,971,NaN,clock,truck,0.90,0971_nse_dnn_0.90_truck_10_n03796401_1446.png
shufflenet_test,1,972,NaN,bottle,boat,0.20,0972_nse_dnn_0.20_boat_10_n03662601_5529.png
shufflenet_test,1,973,NaN,bottle,keyboard,0.35,0973_nse_dnn_0.35_keyboard_10_n04505470_3425.png
shufflenet_test,1,974,NaN,airplane,airplane,0.00,0974_nse_dnn_0.00_airplane_10_n02690373_5967.png
shufflenet_test,1,975,NaN,bicycle,dog,0.05,0975_nse_dnn_0.05_dog_10_n02096051_1308.png
shufflenet_test,1,976,NaN,cat,boat,0.10,0976_nse_dnn_0.10_boat_10_n04612504_6308.png
shufflenet_test,1,977,NaN,bottle,bear,0.35,0977_nse_dnn_0.35_bear_10_n02133161_5927.png
shufflenet_test,1,978,NaN,bottle,dog,0.35,0978_nse_dnn_0.35_dog_10_n02110958_6868.png
shufflenet_test,1,979,NaN,clock,elephant,0.60,0979_nse_dnn_0.60_elephant_10_n02504013_1110.png
shufflenet_test,1,980,NaN,bottle,truck,0.20,0980_nse_dnn_0.20_truck_10_n03417042_4994.png
shufflenet_test,1,981,NaN,bottle,keyboard,0.60,0981_nse_dnn_0.60_keyboard_10_n03085013_25066.png
shufflenet_test,1,982,NaN,clock,airplane,0.90,0982_nse_dnn_0.90_airplane_10_n02690373_1862.png
shufflenet_test,1,983,NaN,keyboard,knife,0.10,0983_nse_dnn_0.10_knife_10_n03041632_11887.png
shufflenet_test,1,984,NaN,bottle,elephant,0.20,0984_nse_dnn_0.20_elephant_10_n02504013_3939.png
shufflenet_test,1,985,NaN,bottle,keyboard,0.35,0985_nse_dnn_0.35_keyboard_10_n04505470_4565.png
shufflenet_test,1,986,NaN,keyboard,keyboard,0.03,0986_nse_dnn_0.03_keyboard_10_n04505470_1651.png
shufflenet_test,1,987,NaN,bottle,truck,0.60,0987_nse_dnn_0.60_truck_10_n03417042_8145.png
shufflenet_test,1,988,NaN,chair,chair,0.05,0988_nse_dnn_0.05_chair_10_n02791124_2470.png
shufflenet_test,1,989,NaN,knife,knife,0.03,0989_nse_dnn_0.03_knife_10_n03041632_94202.png
shufflenet_test,1,990,NaN,bottle,keyboard,0.20,0990_nse_dnn_0.20_keyboard_10_n03085013_22597.png
shufflenet_test,1,991,NaN,chair,chair,0.03,0991_nse_dnn_0.03_chair_10_n02791124_7483.png
shufflenet_test,1,992,NaN,airplane,airplane,0.03,0992_nse_dnn_0.03_airplane_10_n02690373_1038.png
shufflenet_test,1,993,NaN,bottle,oven,0.20,0993_nse_dnn_0.20_oven_10_n04111531_6024.png
shufflenet_test,1,994,NaN,bottle,bear,0.35,0994_nse_dnn_0.35_bear_10_n02134418_2502.png
shufflenet_test,1,995,NaN,bottle,truck,0.35,0995_nse_dnn_0.35_truck_10_n03417042_8928.png
shufflenet_test,1,996,NaN,keyboard,keyboard,0.00,0996_nse_dnn_0.00_keyboard_10_n04505470_4682.png
shufflenet_test,1,997,NaN,clock,airplane,0.90,0997_nse_dnn_0.90_airplane_10_n02690373_427.png
shufflenet_test,1,998,NaN,cat,bear,0.05,0998_nse_dnn_0.05_bear_10_n02134084_473.png
shufflenet_test,1,999,NaN,chair,chair,0.00,0999_nse_dnn_0.00_chair_10_n04099969_6395.png
shufflenet_test,1,1000,NaN,truck,truck,0.05,1000_nse_dnn_0.05_truck_10_n03796401_30000.png
shufflenet_test,1,1001,NaN,bottle,keyboard,0.35,1001_nse_dnn_0.35_keyboard_10_n04505470_8620.png
shufflenet_test,1,1002,NaN,clock,dog,0.90,1002_nse_dnn_0.90_dog_10_n02110806_5609.png
shufflenet_test,1,1003,NaN,knife,clock,0.20,1003_nse_dnn_0.20_clock_10_n03196217_445.png
shufflenet_test,1,1004,NaN,bottle,dog,0.60,1004_nse_dnn_0.60_dog_10_n02093428_6133.png
shufflenet_test,1,1005,NaN,bottle,cat,0.60,1005_nse_dnn_0.60_cat_10_n02124075_9939.png
shufflenet_test,1,1006,NaN,clock,chair,0.90,1006_nse_dnn_0.90_chair_10_n02791124_15383.png
shufflenet_test,1,1007,NaN,bottle,cat,0.20,1007_nse_dnn_0.20_cat_10_n02123597_1750.png
shufflenet_test,1,1008,NaN,bottle,car,0.60,1008_nse_dnn_0.60_car_10_n03100240_9875.png
shufflenet_test,1,1009,NaN,oven,keyboard,0.00,1009_nse_dnn_0.00_keyboard_10_n04505470_1052.png
shufflenet_test,1,1010,NaN,cat,boat,0.10,1010_nse_dnn_0.10_boat_10_n04273569_1012.png
shufflenet_test,1,1011,NaN,boat,boat,0.03,1011_nse_dnn_0.03_boat_10_n03344393_7109.png
shufflenet_test,1,1012,NaN,bottle,bear,0.35,1012_nse_dnn_0.35_bear_10_n02134418_2432.png
shufflenet_test,1,1013,NaN,bottle,clock,0.35,1013_nse_dnn_0.35_clock_10_n02708093_4912.png
shufflenet_test,1,1014,NaN,bottle,car,0.20,1014_nse_dnn_0.20_car_10_n04285008_13629.png
shufflenet_test,1,1015,NaN,chair,bicycle,0.00,1015_nse_dnn_0.00_bicycle_10_n02835271_5056.png
shufflenet_test,1,1016,NaN,cat,oven,0.10,1016_nse_dnn_0.10_oven_10_n04111531_16198.png
shufflenet_test,1,1017,NaN,bottle,knife,0.20,1017_nse_dnn_0.20_knife_10_n03041632_29355.png
shufflenet_test,1,1018,NaN,clock,clock,0.03,1018_nse_dnn_0.03_clock_10_n04548280_6068.png
shufflenet_test,1,1019,NaN,cat,cat,0.03,1019_nse_dnn_0.03_cat_10_n02123394_9542.png
shufflenet_test,1,1020,NaN,car,car,0.00,1020_nse_dnn_0.00_car_10_n02814533_72473.png
shufflenet_test,1,1021,NaN,clock,keyboard,0.90,1021_nse_dnn_0.90_keyboard_10_n04505470_1479.png
shufflenet_test,1,1022,NaN,keyboard,keyboard,0.03,1022_nse_dnn_0.03_keyboard_10_n04505470_4554.png
shufflenet_test,1,1023,NaN,bottle,bottle,0.60,1023_nse_dnn_0.60_bottle_10_n02823428_3929.png
shufflenet_test,1,1024,NaN,keyboard,clock,0.00,1024_nse_dnn_0.00_clock_10_n03196217_6064.png
shufflenet_test,1,1025,NaN,bottle,airplane,0.35,1025_nse_dnn_0.35_airplane_10_n02690373_5032.png
shufflenet_test,1,1026,NaN,bottle,clock,0.10,1026_nse_dnn_0.10_clock_10_n04548280_9426.png
shufflenet_test,1,1027,NaN,clock,bicycle,0.90,1027_nse_dnn_0.90_bicycle_10_n02835271_30318.png
shufflenet_test,1,1028,NaN,clock,clock,0.00,1028_nse_dnn_0.00_clock_10_n04548280_4181.png
shufflenet_test,1,1029,NaN,bear,bear,0.03,1029_nse_dnn_0.03_bear_10_n02132136_6967.png
shufflenet_test,1,1030,NaN,bottle,bird,0.35,1030_nse_dnn_0.35_bird_10_n02025239_18436.png
shufflenet_test,1,1031,NaN,bottle,elephant,0.10,1031_nse_dnn_0.10_elephant_10_n02504013_7774.png
shufflenet_test,1,1032,NaN,clock,car,0.90,1032_nse_dnn_0.90_car_10_n04285008_550.png
shufflenet_test,1,1033,NaN,bottle,keyboard,0.03,1033_nse_dnn_0.03_keyboard_10_n04505470_6051.png
shufflenet_test,1,1034,NaN,bottle,knife,0.35,1034_nse_dnn_0.35_knife_10_n03041632_51581.png
shufflenet_test,1,1035,NaN,bear,bear,0.05,1035_nse_dnn_0.05_bear_10_n02134084_15016.png
shufflenet_test,1,1036,NaN,chair,clock,0.05,1036_nse_dnn_0.05_clock_10_n03196217_5972.png
shufflenet_test,1,1037,NaN,clock,cat,0.60,1037_nse_dnn_0.60_cat_10_n02123597_5514.png
shufflenet_test,1,1038,NaN,cat,cat,0.05,1038_nse_dnn_0.05_cat_10_n02123394_7223.png
shufflenet_test,1,1039,NaN,bottle,oven,0.20,1039_nse_dnn_0.20_oven_10_n04111531_1330.png
shufflenet_test,1,1040,NaN,airplane,knife,0.05,1040_nse_dnn_0.05_knife_10_n03041632_52702.png
shufflenet_test,1,1041,NaN,cat,dog,0.03,1041_nse_dnn_0.03_dog_10_n02112350_1654.png
shufflenet_test,1,1042,NaN,clock,truck,0.90,1042_nse_dnn_0.90_truck_10_n04467665_37009.png
shufflenet_test,1,1043,NaN,bottle,boat,0.60,1043_nse_dnn_0.60_boat_10_n03662601_6625.png
shufflenet_test,1,1044,NaN,cat,cat,0.03,1044_nse_dnn_0.03_cat_10_n02123159_7270.png
shufflenet_test,1,1045,NaN,clock,keyboard,0.90,1045_nse_dnn_0.90_keyboard_10_n03085013_18769.png
shufflenet_test,1,1046,NaN,bottle,car,0.35,1046_nse_dnn_0.35_car_10_n02814533_73210.png
shufflenet_test,1,1047,NaN,bottle,bottle,0.03,1047_nse_dnn_0.03_bottle_10_n04591713_5518.png
shufflenet_test,1,1048,NaN,bottle,knife,0.20,1048_nse_dnn_0.20_knife_10_n03041632_23087.png
shufflenet_test,1,1049,NaN,airplane,airplane,0.05,1049_nse_dnn_0.05_airplane_10_n02690373_7072.png
shufflenet_test,1,1050,NaN,clock,bear,0.60,1050_nse_dnn_0.60_bear_10_n02134084_8095.png
shufflenet_test,1,1051,NaN,bottle,truck,0.20,1051_nse_dnn_0.20_truck_10_n03417042_17916.png
shufflenet_test,1,1052,NaN,clock,car,0.03,1052_nse_dnn_0.03_car_10_n03100240_2425.png
shufflenet_test,1,1053,NaN,bottle,car,0.35,1053_nse_dnn_0.35_car_10_n02814533_8881.png
shufflenet_test,1,1054,NaN,bottle,bird,0.05,1054_nse_dnn_0.05_bird_10_n01534433_4594.png
shufflenet_test,1,1055,NaN,bottle,cat,0.60,1055_nse_dnn_0.60_cat_10_n02123159_6162.png
shufflenet_test,1,1056,NaN,bottle,bottle,0.05,1056_nse_dnn_0.05_bottle_10_n04591713_7010.png
shufflenet_test,1,1057,NaN,elephant,elephant,0.03,1057_nse_dnn_0.03_elephant_10_n02504458_10554.png
shufflenet_test,1,1058,NaN,clock,car,0.60,1058_nse_dnn_0.60_car_10_n02814533_27588.png
shufflenet_test,1,1059,NaN,elephant,dog,0.03,1059_nse_dnn_0.03_dog_10_n02102480_6569.png
shufflenet_test,1,1060,NaN,chair,oven,0.03,1060_nse_dnn_0.03_oven_10_n04111531_21911.png
shufflenet_test,1,1061,NaN,chair,chair,0.05,1061_nse_dnn_0.05_chair_10_n04429376_30921.png
shufflenet_test,1,1062,NaN,keyboard,knife,0.20,1062_nse_dnn_0.20_knife_10_n03041632_24541.png
shufflenet_test,1,1063,NaN,bottle,knife,0.35,1063_nse_dnn_0.35_knife_10_n03041632_40508.png
shufflenet_test,1,1064,NaN,bird,bird,0.03,1064_nse_dnn_0.03_bird_10_n02018207_4180.png
shufflenet_test,1,1065,NaN,bottle,truck,0.20,1065_nse_dnn_0.20_truck_10_n03796401_21490.png
shufflenet_test,1,1066,NaN,bottle,keyboard,0.35,1066_nse_dnn_0.35_keyboard_10_n03085013_19607.png
shufflenet_test,1,1067,NaN,keyboard,keyboard,0.03,1067_nse_dnn_0.03_keyboard_10_n04505470_9866.png
shufflenet_test,1,1068,NaN,airplane,airplane,0.03,1068_nse_dnn_0.03_airplane_10_n02690373_1306.png
shufflenet_test,1,1069,NaN,clock,knife,0.90,1069_nse_dnn_0.90_knife_10_n03041632_38535.png
shufflenet_test,1,1070,NaN,airplane,dog,0.00,1070_nse_dnn_0.00_dog_10_n02107574_835.png
shufflenet_test,1,1071,NaN,clock,bear,0.90,1071_nse_dnn_0.90_bear_10_n02133161_4398.png
shufflenet_test,1,1072,NaN,oven,oven,0.00,1072_nse_dnn_0.00_oven_10_n04111531_10358.png
shufflenet_test,1,1073,NaN,bottle,bird,0.10,1073_nse_dnn_0.10_bird_10_n01843383_386.png
shufflenet_test,1,1074,NaN,oven,oven,0.00,1074_nse_dnn_0.00_oven_10_n04111531_10375.png
shufflenet_test,1,1075,NaN,bottle,bird,0.60,1075_nse_dnn_0.60_bird_10_n01817953_12877.png
shufflenet_test,1,1076,NaN,cat,bottle,0.20,1076_nse_dnn_0.20_bottle_10_n02823428_4165.png
shufflenet_test,1,1077,NaN,bottle,boat,0.10,1077_nse_dnn_0.10_boat_10_n03662601_3471.png
shufflenet_test,1,1078,NaN,cat,cat,0.05,1078_nse_dnn_0.05_cat_10_n02125311_6393.png
shufflenet_test,1,1079,NaN,bottle,bicycle,0.20,1079_nse_dnn_0.20_bicycle_10_n02835271_12120.png
shufflenet_test,1,1080,NaN,clock,boat,0.60,1080_nse_dnn_0.60_boat_10_n03662601_5995.png
shufflenet_test,1,1081,NaN,bottle,bear,0.35,1081_nse_dnn_0.35_bear_10_n02133161_14833.png
shufflenet_test,1,1082,NaN,bicycle,bicycle,0.05,1082_nse_dnn_0.05_bicycle_10_n03792782_13923.png
shufflenet_test,1,1083,NaN,bottle,boat,0.35,1083_nse_dnn_0.35_boat_10_n04273569_4418.png
shufflenet_test,1,1084,NaN,bottle,oven,0.10,1084_nse_dnn_0.10_oven_10_n04111531_7965.png
shufflenet_test,1,1085,NaN,airplane,airplane,0.03,1085_nse_dnn_0.03_airplane_10_n02690373_5845.png
shufflenet_test,1,1086,NaN,bottle,elephant,0.20,1086_nse_dnn_0.20_elephant_10_n02504458_309.png
shufflenet_test,1,1087,NaN,truck,truck,0.00,1087_nse_dnn_0.00_truck_10_n04467665_39477.png
shufflenet_test,1,1088,NaN,bottle,bear,0.60,1088_nse_dnn_0.60_bear_10_n02132136_11183.png
shufflenet_test,1,1089,NaN,bottle,airplane,0.35,1089_nse_dnn_0.35_airplane_10_n02690373_10079.png
shufflenet_test,1,1090,NaN,clock,bicycle,0.90,1090_nse_dnn_0.90_bicycle_10_n03792782_18516.png
shufflenet_test,1,1091,NaN,bottle,airplane,0.60,1091_nse_dnn_0.60_airplane_10_n02690373_5729.png
shufflenet_test,1,1092,NaN,clock,bottle,0.90,1092_nse_dnn_0.90_bottle_10_n04591713_5279.png
shufflenet_test,1,1093,NaN,clock,boat,0.90,1093_nse_dnn_0.90_boat_10_n04273569_18898.png
shufflenet_test,1,1094,NaN,keyboard,keyboard,0.10,1094_nse_dnn_0.10_keyboard_10_n04505470_4951.png
shufflenet_test,1,1095,NaN,bottle,dog,0.35,1095_nse_dnn_0.35_dog_10_n02107312_5759.png
shufflenet_test,1,1096,NaN,airplane,car,0.10,1096_nse_dnn_0.10_car_10_n03100240_17874.png
shufflenet_test,1,1097,NaN,bottle,airplane,0.35,1097_nse_dnn_0.35_airplane_10_n02690373_7591.png
shufflenet_test,1,1098,NaN,bottle,car,0.60,1098_nse_dnn_0.60_car_10_n02814533_8232.png
