subj,session,trial,rt,object_response,category,condition,imagename
swin_base,1,1,NaN,bird,elephant,0.03,0001_nse_dnn_0.03_elephant_10_n02504458_7209.png
swin_base,1,2,NaN,knife,knife,0.90,0002_nse_dnn_0.90_knife_10_n03041632_82878.png
swin_base,1,3,NaN,elephant,clock,0.00,0003_nse_dnn_0.00_clock_10_n03196217_9231.png
swin_base,1,4,NaN,dog,oven,0.00,0004_nse_dnn_0.00_oven_10_n04111531_11026.png
swin_base,1,5,NaN,knife,clock,0.10,0005_nse_dnn_0.10_clock_10_n04548280_1114.png
swin_base,1,6,NaN,chair,clock,0.03,0006_nse_dnn_0.03_clock_10_n02708093_8100.png
swin_base,1,7,NaN,oven,clock,0.00,0007_nse_dnn_0.00_clock_10_n02708093_3591.png
swin_base,1,8,NaN,dog,chair,0.00,0008_nse_dnn_0.00_chair_10_n03376595_16202.png
swin_base,1,9,NaN,truck,bottle,0.60,0009_nse_dnn_0.60_bottle_10_n02823428_3478.png
swin_base,1,10,NaN,knife,dog,0.10,0010_nse_dnn_0.10_dog_10_n02087394_28673.png
swin_base,1,11,NaN,knife,chair,0.10,0011_nse_dnn_0.10_chair_10_n04099969_1690.png
swin_base,1,12,NaN,dog,cat,0.03,0012_nse_dnn_0.03_cat_10_n02125311_1736.png
swin_base,1,13,NaN,knife,bear,0.90,0013_nse_dnn_0.90_bear_10_n02133161_1169.png
swin_base,1,14,NaN,knife,bear,0.90,0014_nse_dnn_0.90_bear_10_n02133161_8835.png
swin_base,1,15,NaN,dog,car,0.20,0015_nse_dnn_0.20_car_10_n02814533_5430.png
swin_base,1,16,NaN,truck,bear,0.60,0016_nse_dnn_0.60_bear_10_n02134418_3767.png
swin_base,1,17,NaN,truck,knife,0.20,0017_nse_dnn_0.20_knife_10_n03041632_10540.png
swin_base,1,18,NaN,dog,bicycle,0.20,0018_nse_dnn_0.20_bicycle_10_n02835271_1075.png
swin_base,1,19,NaN,dog,bear,0.00,0019_nse_dnn_0.00_bear_10_n02134084_3888.png
swin_base,1,20,NaN,dog,dog,0.00,0020_nse_dnn_0.00_dog_10_n02085936_9009.png
swin_base,1,21,NaN,elephant,knife,0.03,0021_nse_dnn_0.03_knife_10_n03041632_12651.png
swin_base,1,22,NaN,truck,bicycle,0.35,0022_nse_dnn_0.35_bicycle_10_n03792782_565.png
swin_base,1,23,NaN,dog,boat,0.20,0023_nse_dnn_0.20_boat_10_n04612504_40672.png
swin_base,1,24,NaN,bird,dog,0.05,0024_nse_dnn_0.05_dog_10_n02098105_146.png
swin_base,1,25,NaN,elephant,clock,0.03,0025_nse_dnn_0.03_clock_10_n02708093_5944.png
swin_base,1,26,NaN,car,cat,0.03,0026_nse_dnn_0.03_cat_10_n02124075_14021.png
swin_base,1,27,NaN,dog,bear,0.20,0027_nse_dnn_0.20_bear_10_n02133161_7184.png
swin_base,1,28,NaN,cat,bottle,0.00,0028_nse_dnn_0.00_bottle_10_n03937543_9745.png
swin_base,1,29,NaN,truck,airplane,0.60,0029_nse_dnn_0.60_airplane_10_n02690373_9605.png
swin_base,1,30,NaN,dog,cat,0.20,0030_nse_dnn_0.20_cat_10_n02123045_7167.png
swin_base,1,31,NaN,elephant,airplane,0.05,0031_nse_dnn_0.05_airplane_10_n02690373_4706.png
swin_base,1,32,NaN,boat,knife,0.35,0032_nse_dnn_0.35_knife_10_n03041632_45270.png
swin_base,1,33,NaN,dog,dog,0.35,0033_nse_dnn_0.35_dog_10_n02105855_9326.png
swin_base,1,34,NaN,dog,bear,0.10,0034_nse_dnn_0.10_bear_10_n02134418_4349.png
swin_base,1,35,NaN,dog,cat,0.00,0035_nse_dnn_0.00_cat_10_n02123159_469.png
swin_base,1,36,NaN,knife,truck,0.90,0036_nse_dnn_0.90_truck_10_n03417042_5004.png
swin_base,1,37,NaN,chair,bird,0.10,0037_nse_dnn_0.10_bird_10_n02051845_6333.png
swin_base,1,38,NaN,knife,clock,0.90,0038_nse_dnn_0.90_clock_10_n03196217_12701.png
swin_base,1,39,NaN,truck,chair,0.60,0039_nse_dnn_0.60_chair_10_n03376595_12341.png
swin_base,1,40,NaN,dog,bicycle,0.10,0040_nse_dnn_0.10_bicycle_10_n03792782_66837.png
swin_base,1,41,NaN,bird,bicycle,0.05,0041_nse_dnn_0.05_bicycle_10_n02835271_20177.png
swin_base,1,42,NaN,knife,knife,0.00,0042_nse_dnn_0.00_knife_10_n03041632_22330.png
swin_base,1,43,NaN,knife,cat,0.60,0043_nse_dnn_0.60_cat_10_n02123045_5913.png
swin_base,1,44,NaN,bird,elephant,0.20,0044_nse_dnn_0.20_elephant_10_n02504013_2464.png
swin_base,1,45,NaN,knife,knife,0.90,0045_nse_dnn_0.90_knife_10_n03041632_99460.png
swin_base,1,46,NaN,bird,dog,0.00,0046_nse_dnn_0.00_dog_10_n02099601_8686.png
swin_base,1,47,NaN,truck,chair,0.90,0047_nse_dnn_0.90_chair_10_n02791124_5400.png
swin_base,1,48,NaN,knife,chair,0.05,0048_nse_dnn_0.05_chair_10_n03376595_830.png
swin_base,1,49,NaN,truck,cat,0.90,0049_nse_dnn_0.90_cat_10_n02124075_6024.png
swin_base,1,50,NaN,knife,bicycle,0.10,0050_nse_dnn_0.10_bicycle_10_n03792782_9004.png
swin_base,1,51,NaN,knife,keyboard,0.60,0051_nse_dnn_0.60_keyboard_10_n03085013_24088.png
swin_base,1,52,NaN,knife,cat,0.10,0052_nse_dnn_0.10_cat_10_n02125311_33778.png
swin_base,1,53,NaN,knife,bicycle,0.00,0053_nse_dnn_0.00_bicycle_10_n03792782_7092.png
swin_base,1,54,NaN,truck,airplane,0.35,0054_nse_dnn_0.35_airplane_10_n02690373_5724.png
swin_base,1,55,NaN,dog,bear,0.60,0055_nse_dnn_0.60_bear_10_n02133161_5637.png
swin_base,1,56,NaN,dog,bear,0.10,0056_nse_dnn_0.10_bear_10_n02132136_5365.png
swin_base,1,57,NaN,knife,car,0.35,0057_nse_dnn_0.35_car_10_n03100240_1702.png
swin_base,1,58,NaN,dog,oven,0.35,0058_nse_dnn_0.35_oven_10_n04111531_2677.png
swin_base,1,59,NaN,car,oven,0.05,0059_nse_dnn_0.05_oven_10_n04111531_16583.png
swin_base,1,60,NaN,knife,chair,0.10,0060_nse_dnn_0.10_chair_10_n04099969_6266.png
swin_base,1,61,NaN,knife,oven,0.60,0061_nse_dnn_0.60_oven_10_n04111531_6695.png
swin_base,1,62,NaN,truck,car,0.10,0062_nse_dnn_0.10_car_10_n03100240_1438.png
swin_base,1,63,NaN,dog,keyboard,0.20,0063_nse_dnn_0.20_keyboard_10_n04505470_4684.png
swin_base,1,64,NaN,car,chair,0.00,0064_nse_dnn_0.00_chair_10_n04099969_8021.png
swin_base,1,65,NaN,dog,car,0.20,0065_nse_dnn_0.20_car_10_n04285008_7139.png
swin_base,1,66,NaN,oven,truck,0.03,0066_nse_dnn_0.03_truck_10_n03796401_9207.png
swin_base,1,67,NaN,truck,bottle,0.05,0067_nse_dnn_0.05_bottle_10_n04560804_3651.png
swin_base,1,68,NaN,truck,chair,0.60,0068_nse_dnn_0.60_chair_10_n03376595_3010.png
swin_base,1,69,NaN,truck,bird,0.90,0069_nse_dnn_0.90_bird_10_n01514859_1951.png
swin_base,1,70,NaN,knife,car,0.10,0070_nse_dnn_0.10_car_10_n03100240_4594.png
swin_base,1,71,NaN,truck,clock,0.35,0071_nse_dnn_0.35_clock_10_n03196217_3333.png
swin_base,1,72,NaN,knife,car,0.10,0072_nse_dnn_0.10_car_10_n02814533_90798.png
swin_base,1,73,NaN,elephant,keyboard,0.00,0073_nse_dnn_0.00_keyboard_10_n03085013_19547.png
swin_base,1,74,NaN,dog,bear,0.05,0074_nse_dnn_0.05_bear_10_n02133161_545.png
swin_base,1,75,NaN,knife,oven,0.90,0075_nse_dnn_0.90_oven_10_n04111531_6489.png
swin_base,1,76,NaN,knife,dog,0.90,0076_nse_dnn_0.90_dog_10_n02105056_15299.png
swin_base,1,77,NaN,bottle,knife,0.05,0077_nse_dnn_0.05_knife_10_n03041632_33255.png
swin_base,1,78,NaN,dog,cat,0.20,0078_nse_dnn_0.20_cat_10_n02123394_5895.png
swin_base,1,79,NaN,car,bottle,0.03,0079_nse_dnn_0.03_bottle_10_n03983396_11654.png
swin_base,1,80,NaN,elephant,airplane,0.03,0080_nse_dnn_0.03_airplane_10_n02690373_3860.png
swin_base,1,81,NaN,chair,oven,0.03,0081_nse_dnn_0.03_oven_10_n04111531_6415.png
swin_base,1,82,NaN,truck,knife,0.60,0082_nse_dnn_0.60_knife_10_n03041632_39342.png
swin_base,1,83,NaN,truck,bear,0.60,0083_nse_dnn_0.60_bear_10_n02133161_4882.png
swin_base,1,84,NaN,bird,bottle,0.00,0084_nse_dnn_0.00_bottle_10_n04591713_7474.png
swin_base,1,85,NaN,truck,bear,0.20,0085_nse_dnn_0.20_bear_10_n02132136_17615.png
swin_base,1,86,NaN,knife,boat,0.60,0086_nse_dnn_0.60_boat_10_n03344393_382.png
swin_base,1,87,NaN,clock,truck,0.00,0087_nse_dnn_0.00_truck_10_n03796401_27811.png
swin_base,1,88,NaN,truck,keyboard,0.60,0088_nse_dnn_0.60_keyboard_10_n04505470_2603.png
swin_base,1,89,NaN,knife,boat,0.35,0089_nse_dnn_0.35_boat_10_n03662601_16418.png
swin_base,1,90,NaN,dog,bear,0.35,0090_nse_dnn_0.35_bear_10_n02132136_2760.png
swin_base,1,91,NaN,bird,bicycle,0.05,0091_nse_dnn_0.05_bicycle_10_n02835271_10271.png
swin_base,1,92,NaN,knife,bear,0.10,0092_nse_dnn_0.10_bear_10_n02134084_9127.png
swin_base,1,93,NaN,dog,bird,0.20,0093_nse_dnn_0.20_bird_10_n01797886_551.png
swin_base,1,94,NaN,knife,truck,0.10,0094_nse_dnn_0.10_truck_10_n03417042_9559.png
swin_base,1,95,NaN,truck,clock,0.90,0095_nse_dnn_0.90_clock_10_n02708093_3114.png
swin_base,1,96,NaN,bird,bicycle,0.05,0096_nse_dnn_0.05_bicycle_10_n03792782_122.png
swin_base,1,97,NaN,dog,oven,0.35,0097_nse_dnn_0.35_oven_10_n04111531_3702.png
swin_base,1,98,NaN,knife,car,0.90,0098_nse_dnn_0.90_car_10_n02814533_93476.png
swin_base,1,99,NaN,dog,cat,0.35,0099_nse_dnn_0.35_cat_10_n02123045_8491.png
swin_base,1,100,NaN,bird,chair,0.35,0100_nse_dnn_0.35_chair_10_n02791124_13469.png
swin_base,1,101,NaN,knife,dog,0.60,0101_nse_dnn_0.60_dog_10_n02096294_5451.png
swin_base,1,102,NaN,dog,bicycle,0.35,0102_nse_dnn_0.35_bicycle_10_n03792782_44296.png
swin_base,1,103,NaN,knife,cat,0.90,0103_nse_dnn_0.90_cat_10_n02123597_7138.png
swin_base,1,104,NaN,dog,bottle,0.35,0104_nse_dnn_0.35_bottle_10_n04560804_12736.png
swin_base,1,105,NaN,knife,oven,0.60,0105_nse_dnn_0.60_oven_10_n04111531_22797.png
swin_base,1,106,NaN,dog,bird,0.10,0106_nse_dnn_0.10_bird_10_n02007558_7446.png
swin_base,1,107,NaN,truck,boat,0.60,0107_nse_dnn_0.60_boat_10_n03662601_16441.png
swin_base,1,108,NaN,truck,oven,0.60,0108_nse_dnn_0.60_oven_10_n04111531_22386.png
swin_base,1,109,NaN,elephant,airplane,0.00,0109_nse_dnn_0.00_airplane_10_n02690373_1381.png
swin_base,1,110,NaN,truck,keyboard,0.20,0110_nse_dnn_0.20_keyboard_10_n03085013_20779.png
swin_base,1,111,NaN,truck,dog,0.90,0111_nse_dnn_0.90_dog_10_n02095570_9488.png
swin_base,1,112,NaN,bird,dog,0.03,0112_nse_dnn_0.03_dog_10_n02107312_3262.png
swin_base,1,113,NaN,elephant,oven,0.03,0113_nse_dnn_0.03_oven_10_n04111531_10681.png
swin_base,1,114,NaN,knife,knife,0.90,0114_nse_dnn_0.90_knife_10_n03041632_29285.png
swin_base,1,115,NaN,dog,elephant,0.60,0115_nse_dnn_0.60_elephant_10_n02504458_4776.png
swin_base,1,116,NaN,dog,boat,0.10,0116_nse_dnn_0.10_boat_10_n04273569_11940.png
swin_base,1,117,NaN,dog,cat,0.20,0117_nse_dnn_0.20_cat_10_n02123159_1413.png
swin_base,1,118,NaN,truck,airplane,0.60,0118_nse_dnn_0.60_airplane_10_n02690373_6674.png
swin_base,1,119,NaN,truck,clock,0.35,0119_nse_dnn_0.35_clock_10_n04548280_5088.png
swin_base,1,120,NaN,dog,clock,0.05,0120_nse_dnn_0.05_clock_10_n02708093_6624.png
swin_base,1,121,NaN,bird,bicycle,0.20,0121_nse_dnn_0.20_bicycle_10_n03792782_29108.png
swin_base,1,122,NaN,truck,clock,0.20,0122_nse_dnn_0.20_clock_10_n04548280_8649.png
swin_base,1,123,NaN,truck,knife,0.05,0123_nse_dnn_0.05_knife_10_n03041632_737.png
swin_base,1,124,NaN,knife,clock,0.10,0124_nse_dnn_0.10_clock_10_n04548280_8668.png
swin_base,1,125,NaN,car,bird,0.03,0125_nse_dnn_0.03_bird_10_n01558993_34885.png
swin_base,1,126,NaN,truck,truck,0.60,0126_nse_dnn_0.60_truck_10_n04467665_37833.png
swin_base,1,127,NaN,car,boat,0.05,0127_nse_dnn_0.05_boat_10_n03662601_5176.png
swin_base,1,128,NaN,car,chair,0.00,0128_nse_dnn_0.00_chair_10_n03376595_9139.png
swin_base,1,129,NaN,knife,oven,0.90,0129_nse_dnn_0.90_oven_10_n04111531_6211.png
swin_base,1,130,NaN,car,boat,0.00,0130_nse_dnn_0.00_boat_10_n04273569_11427.png
swin_base,1,131,NaN,bird,bicycle,0.05,0131_nse_dnn_0.05_bicycle_10_n03792782_17198.png
swin_base,1,132,NaN,cat,clock,0.00,0132_nse_dnn_0.00_clock_10_n04548280_4560.png
swin_base,1,133,NaN,bird,knife,0.03,0133_nse_dnn_0.03_knife_10_n03041632_3781.png
swin_base,1,134,NaN,knife,clock,0.10,0134_nse_dnn_0.10_clock_10_n03196217_958.png
swin_base,1,135,NaN,dog,elephant,0.35,0135_nse_dnn_0.35_elephant_10_n02504458_485.png
swin_base,1,136,NaN,truck,clock,0.00,0136_nse_dnn_0.00_clock_10_n02708093_1038.png
swin_base,1,137,NaN,oven,oven,0.03,0137_nse_dnn_0.03_oven_10_n04111531_1723.png
swin_base,1,138,NaN,bird,dog,0.03,0138_nse_dnn_0.03_dog_10_n02110806_27169.png
swin_base,1,139,NaN,car,airplane,0.00,0139_nse_dnn_0.00_airplane_10_n02690373_12505.png
swin_base,1,140,NaN,knife,bird,0.60,0140_nse_dnn_0.60_bird_10_n01828970_454.png
swin_base,1,141,NaN,knife,oven,0.20,0141_nse_dnn_0.20_oven_10_n04111531_15635.png
swin_base,1,142,NaN,oven,car,0.00,0142_nse_dnn_0.00_car_10_n04285008_8700.png
swin_base,1,143,NaN,knife,keyboard,0.05,0143_nse_dnn_0.05_keyboard_10_n04505470_4592.png
swin_base,1,144,NaN,truck,boat,0.20,0144_nse_dnn_0.20_boat_10_n03344393_9560.png
swin_base,1,145,NaN,bird,bear,0.00,0145_nse_dnn_0.00_bear_10_n02132136_5138.png
swin_base,1,146,NaN,truck,chair,0.60,0146_nse_dnn_0.60_chair_10_n03376595_591.png
swin_base,1,147,NaN,knife,keyboard,0.90,0147_nse_dnn_0.90_keyboard_10_n03085013_20590.png
swin_base,1,148,NaN,dog,dog,0.35,0148_nse_dnn_0.35_dog_10_n02094258_1224.png
swin_base,1,149,NaN,truck,clock,0.20,0149_nse_dnn_0.20_clock_10_n03196217_4486.png
swin_base,1,150,NaN,knife,bear,0.20,0150_nse_dnn_0.20_bear_10_n02134084_22150.png
swin_base,1,151,NaN,knife,cat,0.10,0151_nse_dnn_0.10_cat_10_n02123045_3098.png
swin_base,1,152,NaN,dog,bear,0.20,0152_nse_dnn_0.20_bear_10_n02134418_271.png
swin_base,1,153,NaN,bird,oven,0.05,0153_nse_dnn_0.05_oven_10_n04111531_274.png
swin_base,1,154,NaN,dog,knife,0.35,0154_nse_dnn_0.35_knife_10_n03041632_8563.png
swin_base,1,155,NaN,dog,car,0.00,0155_nse_dnn_0.00_car_10_n02814533_52389.png
swin_base,1,156,NaN,truck,airplane,0.00,0156_nse_dnn_0.00_airplane_10_n02690373_10455.png
swin_base,1,157,NaN,truck,truck,0.35,0157_nse_dnn_0.35_truck_10_n04467665_4810.png
swin_base,1,158,NaN,knife,knife,0.10,0158_nse_dnn_0.10_knife_10_n03041632_3159.png
swin_base,1,159,NaN,dog,cat,0.05,0159_nse_dnn_0.05_cat_10_n02123597_13411.png
swin_base,1,160,NaN,dog,clock,0.10,0160_nse_dnn_0.10_clock_10_n04548280_2654.png
swin_base,1,161,NaN,knife,elephant,0.90,0161_nse_dnn_0.90_elephant_10_n02504013_405.png
swin_base,1,162,NaN,truck,bottle,0.05,0162_nse_dnn_0.05_bottle_10_n04560804_14729.png
swin_base,1,163,NaN,truck,bottle,0.90,0163_nse_dnn_0.90_bottle_10_n02823428_5482.png
swin_base,1,164,NaN,truck,keyboard,0.90,0164_nse_dnn_0.90_keyboard_10_n04505470_4824.png
swin_base,1,165,NaN,dog,chair,0.20,0165_nse_dnn_0.20_chair_10_n04099969_14208.png
swin_base,1,166,NaN,dog,elephant,0.00,0166_nse_dnn_0.00_elephant_10_n02504013_1647.png
swin_base,1,167,NaN,knife,cat,0.20,0167_nse_dnn_0.20_cat_10_n02123597_11564.png
swin_base,1,168,NaN,knife,car,0.35,0168_nse_dnn_0.35_car_10_n03100240_16653.png
swin_base,1,169,NaN,truck,oven,0.00,0169_nse_dnn_0.00_oven_10_n04111531_9611.png
swin_base,1,170,NaN,elephant,car,0.05,0170_nse_dnn_0.05_car_10_n02814533_35054.png
swin_base,1,171,NaN,dog,oven,0.20,0171_nse_dnn_0.20_oven_10_n04111531_3121.png
swin_base,1,172,NaN,dog,chair,0.20,0172_nse_dnn_0.20_chair_10_n02791124_4969.png
swin_base,1,173,NaN,dog,car,0.20,0173_nse_dnn_0.20_car_10_n02814533_211.png
swin_base,1,174,NaN,bird,dog,0.00,0174_nse_dnn_0.00_dog_10_n02091244_13118.png
swin_base,1,175,NaN,knife,bottle,0.10,0175_nse_dnn_0.10_bottle_10_n04560804_3597.png
swin_base,1,176,NaN,truck,bottle,0.60,0176_nse_dnn_0.60_bottle_10_n04560804_30885.png
swin_base,1,177,NaN,truck,bottle,0.60,0177_nse_dnn_0.60_bottle_10_n04560804_9813.png
swin_base,1,178,NaN,truck,boat,0.35,0178_nse_dnn_0.35_boat_10_n02951358_10003.png
swin_base,1,179,NaN,truck,bear,0.35,0179_nse_dnn_0.35_bear_10_n02133161_1500.png
swin_base,1,180,NaN,dog,oven,0.20,0180_nse_dnn_0.20_oven_10_n04111531_4467.png
swin_base,1,181,NaN,dog,clock,0.20,0181_nse_dnn_0.20_clock_10_n02708093_8002.png
swin_base,1,182,NaN,knife,boat,0.90,0182_nse_dnn_0.90_boat_10_n02951358_34261.png
swin_base,1,183,NaN,elephant,boat,0.00,0183_nse_dnn_0.00_boat_10_n04612504_20067.png
swin_base,1,184,NaN,dog,clock,0.35,0184_nse_dnn_0.35_clock_10_n03196217_6163.png
swin_base,1,185,NaN,chair,keyboard,0.03,0185_nse_dnn_0.03_keyboard_10_n03085013_23119.png
swin_base,1,186,NaN,truck,clock,0.60,0186_nse_dnn_0.60_clock_10_n04548280_4358.png
swin_base,1,187,NaN,bird,dog,0.05,0187_nse_dnn_0.05_dog_10_n02101388_2968.png
swin_base,1,188,NaN,knife,oven,0.10,0188_nse_dnn_0.10_oven_10_n04111531_8081.png
swin_base,1,189,NaN,elephant,keyboard,0.05,0189_nse_dnn_0.05_keyboard_10_n04505470_4994.png
swin_base,1,190,NaN,knife,dog,0.10,0190_nse_dnn_0.10_dog_10_n02101006_16132.png
swin_base,1,191,NaN,dog,elephant,0.10,0191_nse_dnn_0.10_elephant_10_n02504458_6888.png
swin_base,1,192,NaN,truck,bird,0.60,0192_nse_dnn_0.60_bird_10_n02018207_43958.png
swin_base,1,193,NaN,dog,cat,0.03,0193_nse_dnn_0.03_cat_10_n02123045_2719.png
swin_base,1,194,NaN,knife,keyboard,0.05,0194_nse_dnn_0.05_keyboard_10_n03085013_5611.png
swin_base,1,195,NaN,dog,boat,0.03,0195_nse_dnn_0.03_boat_10_n03344393_6892.png
swin_base,1,196,NaN,truck,chair,0.90,0196_nse_dnn_0.90_chair_10_n02791124_5411.png
swin_base,1,197,NaN,dog,elephant,0.05,0197_nse_dnn_0.05_elephant_10_n02504013_8391.png
swin_base,1,198,NaN,truck,chair,0.60,0198_nse_dnn_0.60_chair_10_n02791124_7167.png
swin_base,1,199,NaN,knife,truck,0.10,0199_nse_dnn_0.10_truck_10_n03417042_2170.png
swin_base,1,200,NaN,truck,chair,0.35,0200_nse_dnn_0.35_chair_10_n04099969_2109.png
swin_base,1,201,NaN,knife,chair,0.90,0201_nse_dnn_0.90_chair_10_n04429376_7321.png
swin_base,1,202,NaN,truck,airplane,0.35,0202_nse_dnn_0.35_airplane_10_n02690373_1733.png
swin_base,1,203,NaN,knife,bird,0.10,0203_nse_dnn_0.10_bird_10_n02006656_5719.png
swin_base,1,204,NaN,bird,bicycle,0.03,0204_nse_dnn_0.03_bicycle_10_n03792782_12354.png
swin_base,1,205,NaN,knife,bottle,0.03,0205_nse_dnn_0.03_bottle_10_n04557648_12671.png
swin_base,1,206,NaN,dog,elephant,0.05,0206_nse_dnn_0.05_elephant_10_n02504013_318.png
swin_base,1,207,NaN,knife,boat,0.90,0207_nse_dnn_0.90_boat_10_n04273569_16078.png
swin_base,1,208,NaN,dog,cat,0.03,0208_nse_dnn_0.03_cat_10_n02123597_9664.png
swin_base,1,209,NaN,dog,clock,0.35,0209_nse_dnn_0.35_clock_10_n04548280_4113.png
swin_base,1,210,NaN,dog,keyboard,0.60,0210_nse_dnn_0.60_keyboard_10_n03085013_20363.png
swin_base,1,211,NaN,oven,truck,0.03,0211_nse_dnn_0.03_truck_10_n04467665_67908.png
swin_base,1,212,NaN,knife,truck,0.90,0212_nse_dnn_0.90_truck_10_n04467665_61522.png
swin_base,1,213,NaN,knife,cat,0.90,0213_nse_dnn_0.90_cat_10_n02123045_3648.png
swin_base,1,214,NaN,knife,dog,0.60,0214_nse_dnn_0.60_dog_10_n02107574_3685.png
swin_base,1,215,NaN,dog,dog,0.20,0215_nse_dnn_0.20_dog_10_n02100236_4048.png
swin_base,1,216,NaN,dog,bear,0.35,0216_nse_dnn_0.35_bear_10_n02134418_5073.png
swin_base,1,217,NaN,knife,airplane,0.90,0217_nse_dnn_0.90_airplane_10_n02690373_9012.png
swin_base,1,218,NaN,dog,cat,0.35,0218_nse_dnn_0.35_cat_10_n02123159_6439.png
swin_base,1,219,NaN,knife,cat,0.60,0219_nse_dnn_0.60_cat_10_n02125311_3616.png
swin_base,1,220,NaN,truck,bottle,0.60,0220_nse_dnn_0.60_bottle_10_n04557648_4356.png
swin_base,1,221,NaN,dog,bird,0.35,0221_nse_dnn_0.35_bird_10_n02027492_6813.png
swin_base,1,222,NaN,oven,chair,0.03,0222_nse_dnn_0.03_chair_10_n04429376_26765.png
swin_base,1,223,NaN,dog,elephant,0.35,0223_nse_dnn_0.35_elephant_10_n02504458_4811.png
swin_base,1,224,NaN,knife,keyboard,0.20,0224_nse_dnn_0.20_keyboard_10_n04505470_1351.png
swin_base,1,225,NaN,chair,chair,0.05,0225_nse_dnn_0.05_chair_10_n04099969_2532.png
swin_base,1,226,NaN,knife,airplane,0.10,0226_nse_dnn_0.10_airplane_10_n02690373_8547.png
swin_base,1,227,NaN,knife,truck,0.35,0227_nse_dnn_0.35_truck_10_n03417042_23445.png
swin_base,1,228,NaN,knife,truck,0.90,0228_nse_dnn_0.90_truck_10_n04467665_48953.png
swin_base,1,229,NaN,dog,boat,0.20,0229_nse_dnn_0.20_boat_10_n03662601_11739.png
swin_base,1,230,NaN,elephant,cat,0.03,0230_nse_dnn_0.03_cat_10_n02123597_4948.png
swin_base,1,231,NaN,truck,oven,0.35,0231_nse_dnn_0.35_oven_10_n04111531_9411.png
swin_base,1,232,NaN,knife,bicycle,0.60,0232_nse_dnn_0.60_bicycle_10_n03792782_988.png
swin_base,1,233,NaN,oven,car,0.05,0233_nse_dnn_0.05_car_10_n02814533_65294.png
swin_base,1,234,NaN,bird,bottle,0.00,0234_nse_dnn_0.00_bottle_10_n04557648_10420.png
swin_base,1,235,NaN,dog,chair,0.60,0235_nse_dnn_0.60_chair_10_n04099969_33329.png
swin_base,1,236,NaN,truck,oven,0.35,0236_nse_dnn_0.35_oven_10_n04111531_20493.png
swin_base,1,237,NaN,knife,clock,0.10,0237_nse_dnn_0.10_clock_10_n04548280_7839.png
swin_base,1,238,NaN,dog,airplane,0.20,0238_nse_dnn_0.20_airplane_10_n02690373_7229.png
swin_base,1,239,NaN,knife,airplane,0.10,0239_nse_dnn_0.10_airplane_10_n02690373_5003.png
swin_base,1,240,NaN,dog,chair,0.20,0240_nse_dnn_0.20_chair_10_n02791124_206.png
swin_base,1,241,NaN,truck,oven,0.00,0241_nse_dnn_0.00_oven_10_n04111531_7283.png
swin_base,1,242,NaN,truck,chair,0.35,0242_nse_dnn_0.35_chair_10_n04429376_8124.png
swin_base,1,243,NaN,truck,keyboard,0.00,0243_nse_dnn_0.00_keyboard_10_n04505470_3864.png
swin_base,1,244,NaN,dog,bottle,0.35,0244_nse_dnn_0.35_bottle_10_n03937543_3289.png
swin_base,1,245,NaN,knife,boat,0.10,0245_nse_dnn_0.10_boat_10_n03344393_5207.png
swin_base,1,246,NaN,truck,airplane,0.90,0246_nse_dnn_0.90_airplane_10_n02690373_629.png
swin_base,1,247,NaN,dog,elephant,0.03,0247_nse_dnn_0.03_elephant_10_n02504013_104.png
swin_base,1,248,NaN,bird,bicycle,0.03,0248_nse_dnn_0.03_bicycle_10_n03792782_42626.png
swin_base,1,249,NaN,knife,truck,0.35,0249_nse_dnn_0.35_truck_10_n03417042_6847.png
swin_base,1,250,NaN,knife,chair,0.10,0250_nse_dnn_0.10_chair_10_n04429376_23573.png
swin_base,1,251,NaN,chair,clock,0.03,0251_nse_dnn_0.03_clock_10_n03196217_7637.png
swin_base,1,252,NaN,dog,airplane,0.05,0252_nse_dnn_0.05_airplane_10_n02690373_932.png
swin_base,1,253,NaN,truck,truck,0.05,0253_nse_dnn_0.05_truck_10_n03417042_9478.png
swin_base,1,254,NaN,elephant,clock,0.05,0254_nse_dnn_0.05_clock_10_n04548280_7800.png
swin_base,1,255,NaN,knife,keyboard,0.10,0255_nse_dnn_0.10_keyboard_10_n03085013_1698.png
swin_base,1,256,NaN,dog,boat,0.20,0256_nse_dnn_0.20_boat_10_n04273569_32553.png
swin_base,1,257,NaN,dog,bear,0.03,0257_nse_dnn_0.03_bear_10_n02132136_23078.png
swin_base,1,258,NaN,elephant,bottle,0.00,0258_nse_dnn_0.00_bottle_10_n04591713_5476.png
swin_base,1,259,NaN,dog,knife,0.10,0259_nse_dnn_0.10_knife_10_n03041632_31849.png
swin_base,1,260,NaN,knife,truck,0.90,0260_nse_dnn_0.90_truck_10_n03417042_12908.png
swin_base,1,261,NaN,truck,clock,0.60,0261_nse_dnn_0.60_clock_10_n02708093_1418.png
swin_base,1,262,NaN,bottle,car,0.05,0262_nse_dnn_0.05_car_10_n03100240_4173.png
swin_base,1,263,NaN,knife,keyboard,0.10,0263_nse_dnn_0.10_keyboard_10_n03085013_25476.png
swin_base,1,264,NaN,dog,cat,0.05,0264_nse_dnn_0.05_cat_10_n02125311_34464.png
swin_base,1,265,NaN,truck,knife,0.20,0265_nse_dnn_0.20_knife_10_n03041632_36789.png
swin_base,1,266,NaN,dog,dog,0.03,0266_nse_dnn_0.03_dog_10_n02108915_3733.png
swin_base,1,267,NaN,knife,knife,0.60,0267_nse_dnn_0.60_knife_10_n03041632_42162.png
swin_base,1,268,NaN,knife,keyboard,0.10,0268_nse_dnn_0.10_keyboard_10_n03085013_29042.png
swin_base,1,269,NaN,elephant,airplane,0.00,0269_nse_dnn_0.00_airplane_10_n02690373_19407.png
swin_base,1,270,NaN,elephant,bear,0.05,0270_nse_dnn_0.05_bear_10_n02134084_22029.png
swin_base,1,271,NaN,knife,dog,0.60,0271_nse_dnn_0.60_dog_10_n02088238_11711.png
swin_base,1,272,NaN,dog,elephant,0.20,0272_nse_dnn_0.20_elephant_10_n02504013_8522.png
swin_base,1,273,NaN,truck,elephant,0.60,0273_nse_dnn_0.60_elephant_10_n02504458_5941.png
swin_base,1,274,NaN,elephant,truck,0.00,0274_nse_dnn_0.00_truck_10_n04467665_242.png
swin_base,1,275,NaN,bird,keyboard,0.00,0275_nse_dnn_0.00_keyboard_10_n04505470_4473.png
swin_base,1,276,NaN,boat,boat,0.05,0276_nse_dnn_0.05_boat_10_n03662601_10811.png
swin_base,1,277,NaN,elephant,keyboard,0.03,0277_nse_dnn_0.03_keyboard_10_n03085013_20495.png
swin_base,1,278,NaN,bird,bicycle,0.00,0278_nse_dnn_0.00_bicycle_10_n02835271_15038.png
swin_base,1,279,NaN,dog,bear,0.20,0279_nse_dnn_0.20_bear_10_n02134418_5271.png
swin_base,1,280,NaN,knife,chair,0.10,0280_nse_dnn_0.10_chair_10_n02791124_1217.png
swin_base,1,281,NaN,knife,elephant,0.10,0281_nse_dnn_0.10_elephant_10_n02504013_2394.png
swin_base,1,282,NaN,dog,dog,0.35,0282_nse_dnn_0.35_dog_10_n02105505_5576.png
swin_base,1,283,NaN,knife,airplane,0.10,0283_nse_dnn_0.10_airplane_10_n02690373_2579.png
swin_base,1,284,NaN,bird,dog,0.05,0284_nse_dnn_0.05_dog_10_n02102480_10015.png
swin_base,1,285,NaN,knife,cat,0.10,0285_nse_dnn_0.10_cat_10_n02124075_5853.png
swin_base,1,286,NaN,bicycle,truck,0.00,0286_nse_dnn_0.00_truck_10_n03796401_2012.png
swin_base,1,287,NaN,knife,keyboard,0.10,0287_nse_dnn_0.10_keyboard_10_n04505470_1286.png
swin_base,1,288,NaN,knife,truck,0.10,0288_nse_dnn_0.10_truck_10_n04467665_74008.png
swin_base,1,289,NaN,truck,bottle,0.90,0289_nse_dnn_0.90_bottle_10_n04560804_10541.png
swin_base,1,290,NaN,dog,airplane,0.20,0290_nse_dnn_0.20_airplane_10_n02690373_8967.png
swin_base,1,291,NaN,dog,keyboard,0.60,0291_nse_dnn_0.60_keyboard_10_n04505470_3309.png
swin_base,1,292,NaN,oven,car,0.05,0292_nse_dnn_0.05_car_10_n02814533_42665.png
swin_base,1,293,NaN,bird,bicycle,0.03,0293_nse_dnn_0.03_bicycle_10_n03792782_6613.png
swin_base,1,294,NaN,car,knife,0.00,0294_nse_dnn_0.00_knife_10_n03041632_38540.png
swin_base,1,295,NaN,knife,dog,0.90,0295_nse_dnn_0.90_dog_10_n02109047_6542.png
swin_base,1,296,NaN,knife,bicycle,0.35,0296_nse_dnn_0.35_bicycle_10_n03792782_51156.png
swin_base,1,297,NaN,knife,bottle,0.10,0297_nse_dnn_0.10_bottle_10_n04579145_5795.png
swin_base,1,298,NaN,truck,chair,0.03,0298_nse_dnn_0.03_chair_10_n03376595_787.png
swin_base,1,299,NaN,knife,bottle,0.90,0299_nse_dnn_0.90_bottle_10_n04579145_1117.png
swin_base,1,300,NaN,bottle,bird,0.00,0300_nse_dnn_0.00_bird_10_n01795545_11076.png
swin_base,1,301,NaN,dog,clock,0.20,0301_nse_dnn_0.20_clock_10_n03196217_6741.png
swin_base,1,302,NaN,truck,oven,0.00,0302_nse_dnn_0.00_oven_10_n04111531_3555.png
swin_base,1,303,NaN,dog,knife,0.20,0303_nse_dnn_0.20_knife_10_n03041632_36280.png
swin_base,1,304,NaN,oven,truck,0.03,0304_nse_dnn_0.03_truck_10_n04467665_74235.png
swin_base,1,305,NaN,truck,clock,0.90,0305_nse_dnn_0.90_clock_10_n04548280_6287.png
swin_base,1,306,NaN,dog,elephant,0.00,0306_nse_dnn_0.00_elephant_10_n02504458_6472.png
swin_base,1,307,NaN,bird,bicycle,0.05,0307_nse_dnn_0.05_bicycle_10_n03792782_11034.png
swin_base,1,308,NaN,dog,dog,0.60,0308_nse_dnn_0.60_dog_10_n02109525_50916.png
swin_base,1,309,NaN,knife,dog,0.60,0309_nse_dnn_0.60_dog_10_n02097658_1923.png
swin_base,1,310,NaN,elephant,knife,0.03,0310_nse_dnn_0.03_knife_10_n03041632_22480.png
swin_base,1,311,NaN,dog,elephant,0.35,0311_nse_dnn_0.35_elephant_10_n02504458_1041.png
swin_base,1,312,NaN,knife,knife,0.10,0312_nse_dnn_0.10_knife_10_n03041632_28129.png
swin_base,1,313,NaN,elephant,car,0.00,0313_nse_dnn_0.00_car_10_n03100240_14667.png
swin_base,1,314,NaN,knife,airplane,0.03,0314_nse_dnn_0.03_airplane_10_n02690373_3821.png
swin_base,1,315,NaN,truck,cat,0.90,0315_nse_dnn_0.90_cat_10_n02124075_1183.png
swin_base,1,316,NaN,knife,car,0.90,0316_nse_dnn_0.90_car_10_n03100240_1194.png
swin_base,1,317,NaN,truck,oven,0.60,0317_nse_dnn_0.60_oven_10_n04111531_9370.png
swin_base,1,318,NaN,truck,truck,0.20,0318_nse_dnn_0.20_truck_10_n03417042_10597.png
swin_base,1,319,NaN,elephant,truck,0.05,0319_nse_dnn_0.05_truck_10_n03417042_6489.png
swin_base,1,320,NaN,knife,bottle,0.05,0320_nse_dnn_0.05_bottle_10_n04591713_6662.png
swin_base,1,321,NaN,knife,bottle,0.60,0321_nse_dnn_0.60_bottle_10_n04560804_4624.png
swin_base,1,322,NaN,car,bird,0.00,0322_nse_dnn_0.00_bird_10_n01818515_7370.png
swin_base,1,323,NaN,elephant,keyboard,0.05,0323_nse_dnn_0.05_keyboard_10_n03085013_15646.png
swin_base,1,324,NaN,dog,cat,0.03,0324_nse_dnn_0.03_cat_10_n02124075_14924.png
swin_base,1,325,NaN,dog,elephant,0.20,0325_nse_dnn_0.20_elephant_10_n02504013_18217.png
swin_base,1,326,NaN,knife,keyboard,0.35,0326_nse_dnn_0.35_keyboard_10_n04505470_4724.png
swin_base,1,327,NaN,truck,clock,0.20,0327_nse_dnn_0.20_clock_10_n04548280_9646.png
swin_base,1,328,NaN,dog,cat,0.35,0328_nse_dnn_0.35_cat_10_n02123394_6376.png
swin_base,1,329,NaN,dog,elephant,0.35,0329_nse_dnn_0.35_elephant_10_n02504458_130.png
swin_base,1,330,NaN,knife,cat,0.90,0330_nse_dnn_0.90_cat_10_n02124075_9291.png
swin_base,1,331,NaN,bird,bird,0.10,0331_nse_dnn_0.10_bird_10_n02037110_3949.png
swin_base,1,332,NaN,oven,car,0.00,0332_nse_dnn_0.00_car_10_n04285008_10905.png
swin_base,1,333,NaN,knife,chair,0.10,0333_nse_dnn_0.10_chair_10_n04429376_619.png
swin_base,1,334,NaN,knife,boat,0.90,0334_nse_dnn_0.90_boat_10_n02951358_30335.png
swin_base,1,335,NaN,knife,oven,0.90,0335_nse_dnn_0.90_oven_10_n04111531_17995.png
swin_base,1,336,NaN,truck,bird,0.35,0336_nse_dnn_0.35_bird_10_n01828970_11221.png
swin_base,1,337,NaN,dog,elephant,0.10,0337_nse_dnn_0.10_elephant_10_n02504013_1719.png
swin_base,1,338,NaN,knife,oven,0.10,0338_nse_dnn_0.10_oven_10_n04111531_8009.png
swin_base,1,339,NaN,truck,airplane,0.60,0339_nse_dnn_0.60_airplane_10_n02690373_8233.png
swin_base,1,340,NaN,knife,dog,0.10,0340_nse_dnn_0.10_dog_10_n02092339_401.png
swin_base,1,341,NaN,knife,bottle,0.10,0341_nse_dnn_0.10_bottle_10_n02823428_11579.png
swin_base,1,342,NaN,truck,car,0.60,0342_nse_dnn_0.60_car_10_n04285008_6951.png
swin_base,1,343,NaN,truck,bicycle,0.35,0343_nse_dnn_0.35_bicycle_10_n03792782_12504.png
swin_base,1,344,NaN,keyboard,bottle,0.00,0344_nse_dnn_0.00_bottle_10_n02823428_4073.png
swin_base,1,345,NaN,truck,elephant,0.35,0345_nse_dnn_0.35_elephant_10_n02504013_945.png
swin_base,1,346,NaN,dog,cat,0.10,0346_nse_dnn_0.10_cat_10_n02124075_12815.png
swin_base,1,347,NaN,knife,truck,0.60,0347_nse_dnn_0.60_truck_10_n03417042_4876.png
swin_base,1,348,NaN,car,keyboard,0.05,0348_nse_dnn_0.05_keyboard_10_n04505470_4628.png
swin_base,1,349,NaN,truck,bear,0.20,0349_nse_dnn_0.20_bear_10_n02133161_1427.png
swin_base,1,350,NaN,knife,boat,0.60,0350_nse_dnn_0.60_boat_10_n04273569_7296.png
swin_base,1,351,NaN,knife,chair,0.90,0351_nse_dnn_0.90_chair_10_n04099969_41686.png
swin_base,1,352,NaN,elephant,airplane,0.03,0352_nse_dnn_0.03_airplane_10_n02690373_10006.png
swin_base,1,353,NaN,knife,knife,0.90,0353_nse_dnn_0.90_knife_10_n03041632_20595.png
swin_base,1,354,NaN,knife,oven,0.90,0354_nse_dnn_0.90_oven_10_n04111531_2054.png
swin_base,1,355,NaN,dog,truck,0.20,0355_nse_dnn_0.20_truck_10_n04467665_40307.png
swin_base,1,356,NaN,dog,bear,0.00,0356_nse_dnn_0.00_bear_10_n02133161_396.png
swin_base,1,357,NaN,bird,dog,0.03,0357_nse_dnn_0.03_dog_10_n02105056_5636.png
swin_base,1,358,NaN,truck,bicycle,0.35,0358_nse_dnn_0.35_bicycle_10_n02835271_8798.png
swin_base,1,359,NaN,knife,bear,0.90,0359_nse_dnn_0.90_bear_10_n02134418_5478.png
swin_base,1,360,NaN,knife,boat,0.90,0360_nse_dnn_0.90_boat_10_n04612504_4250.png
swin_base,1,361,NaN,dog,knife,0.35,0361_nse_dnn_0.35_knife_10_n03041632_18959.png
swin_base,1,362,NaN,dog,dog,0.35,0362_nse_dnn_0.35_dog_10_n02105251_6564.png
swin_base,1,363,NaN,knife,boat,0.90,0363_nse_dnn_0.90_boat_10_n04612504_7148.png
swin_base,1,364,NaN,elephant,boat,0.03,0364_nse_dnn_0.03_boat_10_n04273569_4348.png
swin_base,1,365,NaN,oven,car,0.03,0365_nse_dnn_0.03_car_10_n02814533_88986.png
swin_base,1,366,NaN,dog,bear,0.03,0366_nse_dnn_0.03_bear_10_n02134418_2590.png
swin_base,1,367,NaN,clock,bird,0.20,0367_nse_dnn_0.20_bird_10_n02007558_5877.png
swin_base,1,368,NaN,chair,clock,0.05,0368_nse_dnn_0.05_clock_10_n02708093_1313.png
swin_base,1,369,NaN,dog,keyboard,0.35,0369_nse_dnn_0.35_keyboard_10_n03085013_20798.png
swin_base,1,370,NaN,truck,dog,0.90,0370_nse_dnn_0.90_dog_10_n02109525_13812.png
swin_base,1,371,NaN,truck,bear,0.20,0371_nse_dnn_0.20_bear_10_n02134418_4458.png
swin_base,1,372,NaN,dog,bottle,0.20,0372_nse_dnn_0.20_bottle_10_n04560804_21519.png
swin_base,1,373,NaN,knife,elephant,0.10,0373_nse_dnn_0.10_elephant_10_n02504458_8183.png
swin_base,1,374,NaN,knife,keyboard,0.90,0374_nse_dnn_0.90_keyboard_10_n03085013_20330.png
swin_base,1,375,NaN,dog,elephant,0.10,0375_nse_dnn_0.10_elephant_10_n02504013_5533.png
swin_base,1,376,NaN,knife,oven,0.90,0376_nse_dnn_0.90_oven_10_n04111531_1009.png
swin_base,1,377,NaN,bird,bicycle,0.05,0377_nse_dnn_0.05_bicycle_10_n03792782_48457.png
swin_base,1,378,NaN,knife,cat,0.10,0378_nse_dnn_0.10_cat_10_n02124075_7240.png
swin_base,1,379,NaN,truck,car,0.60,0379_nse_dnn_0.60_car_10_n02814533_39597.png
swin_base,1,380,NaN,knife,chair,0.03,0380_nse_dnn_0.03_chair_10_n04429376_33792.png
swin_base,1,381,NaN,truck,bicycle,0.60,0381_nse_dnn_0.60_bicycle_10_n03792782_15679.png
swin_base,1,382,NaN,dog,bicycle,0.60,0382_nse_dnn_0.60_bicycle_10_n02835271_9237.png
swin_base,1,383,NaN,truck,bottle,0.35,0383_nse_dnn_0.35_bottle_10_n04591713_665.png
swin_base,1,384,NaN,dog,cat,0.03,0384_nse_dnn_0.03_cat_10_n02123159_8257.png
swin_base,1,385,NaN,knife,dog,0.10,0385_nse_dnn_0.10_dog_10_n02108551_26509.png
swin_base,1,386,NaN,knife,clock,0.60,0386_nse_dnn_0.60_clock_10_n03196217_3697.png
swin_base,1,387,NaN,elephant,bicycle,0.03,0387_nse_dnn_0.03_bicycle_10_n02835271_25268.png
swin_base,1,388,NaN,knife,truck,0.10,0388_nse_dnn_0.10_truck_10_n03796401_407.png
swin_base,1,389,NaN,knife,clock,0.05,0389_nse_dnn_0.05_clock_10_n04548280_2045.png
swin_base,1,390,NaN,elephant,oven,0.05,0390_nse_dnn_0.05_oven_10_n04111531_5792.png
swin_base,1,391,NaN,dog,elephant,0.05,0391_nse_dnn_0.05_elephant_10_n02504458_8212.png
swin_base,1,392,NaN,knife,bird,0.03,0392_nse_dnn_0.03_bird_10_n01843383_8624.png
swin_base,1,393,NaN,truck,airplane,0.20,0393_nse_dnn_0.20_airplane_10_n02690373_4814.png
swin_base,1,394,NaN,knife,truck,0.60,0394_nse_dnn_0.60_truck_10_n03796401_6184.png
swin_base,1,395,NaN,dog,dog,0.03,0395_nse_dnn_0.03_dog_10_n02094114_1589.png
swin_base,1,396,NaN,knife,clock,0.90,0396_nse_dnn_0.90_clock_10_n02708093_6572.png
swin_base,1,397,NaN,truck,boat,0.60,0397_nse_dnn_0.60_boat_10_n02951358_15551.png
swin_base,1,398,NaN,dog,boat,0.35,0398_nse_dnn_0.35_boat_10_n03662601_7352.png
swin_base,1,399,NaN,truck,bicycle,0.60,0399_nse_dnn_0.60_bicycle_10_n03792782_14984.png
swin_base,1,400,NaN,dog,knife,0.35,0400_nse_dnn_0.35_knife_10_n03041632_84012.png
swin_base,1,401,NaN,knife,keyboard,0.10,0401_nse_dnn_0.10_keyboard_10_n03085013_9146.png
swin_base,1,402,NaN,car,airplane,0.03,0402_nse_dnn_0.03_airplane_10_n02690373_6755.png
swin_base,1,403,NaN,dog,dog,0.20,0403_nse_dnn_0.20_dog_10_n02086079_17983.png
swin_base,1,404,NaN,dog,bear,0.00,0404_nse_dnn_0.00_bear_10_n02134418_3284.png
swin_base,1,405,NaN,dog,elephant,0.35,0405_nse_dnn_0.35_elephant_10_n02504458_8064.png
swin_base,1,406,NaN,dog,cat,0.20,0406_nse_dnn_0.20_cat_10_n02123394_289.png
swin_base,1,407,NaN,truck,knife,0.20,0407_nse_dnn_0.20_knife_10_n03041632_18995.png
swin_base,1,408,NaN,car,bird,0.03,0408_nse_dnn_0.03_bird_10_n01843065_4999.png
swin_base,1,409,NaN,dog,keyboard,0.60,0409_nse_dnn_0.60_keyboard_10_n03085013_22417.png
swin_base,1,410,NaN,dog,bear,0.05,0410_nse_dnn_0.05_bear_10_n02132136_3224.png
swin_base,1,411,NaN,car,boat,0.05,0411_nse_dnn_0.05_boat_10_n03662601_33184.png
swin_base,1,412,NaN,boat,bear,0.05,0412_nse_dnn_0.05_bear_10_n02133161_2396.png
swin_base,1,413,NaN,truck,keyboard,0.35,0413_nse_dnn_0.35_keyboard_10_n03085013_24578.png
swin_base,1,414,NaN,truck,car,0.35,0414_nse_dnn_0.35_car_10_n02814533_4519.png
swin_base,1,415,NaN,car,bottle,0.00,0415_nse_dnn_0.00_bottle_10_n03937543_2428.png
swin_base,1,416,NaN,dog,dog,0.05,0416_nse_dnn_0.05_dog_10_n02091635_8296.png
swin_base,1,417,NaN,truck,bottle,0.35,0417_nse_dnn_0.35_bottle_10_n03983396_11434.png
swin_base,1,418,NaN,oven,boat,0.00,0418_nse_dnn_0.00_boat_10_n02951358_7315.png
swin_base,1,419,NaN,clock,bird,0.20,0419_nse_dnn_0.20_bird_10_n01860187_7297.png
swin_base,1,420,NaN,dog,oven,0.20,0420_nse_dnn_0.20_oven_10_n04111531_4250.png
swin_base,1,421,NaN,dog,bear,0.20,0421_nse_dnn_0.20_bear_10_n02133161_9463.png
swin_base,1,422,NaN,clock,bird,0.00,0422_nse_dnn_0.00_bird_10_n02009229_4129.png
swin_base,1,423,NaN,knife,knife,0.10,0423_nse_dnn_0.10_knife_10_n03041632_30821.png
swin_base,1,424,NaN,truck,cat,0.90,0424_nse_dnn_0.90_cat_10_n02123394_2490.png
swin_base,1,425,NaN,bird,dog,0.00,0425_nse_dnn_0.00_dog_10_n02087394_2723.png
swin_base,1,426,NaN,knife,dog,0.90,0426_nse_dnn_0.90_dog_10_n02093754_5736.png
swin_base,1,427,NaN,truck,bottle,0.60,0427_nse_dnn_0.60_bottle_10_n02823428_9063.png
swin_base,1,428,NaN,truck,truck,0.60,0428_nse_dnn_0.60_truck_10_n04467665_20933.png
swin_base,1,429,NaN,knife,car,0.10,0429_nse_dnn_0.10_car_10_n03100240_5999.png
swin_base,1,430,NaN,elephant,oven,0.03,0430_nse_dnn_0.03_oven_10_n04111531_3671.png
swin_base,1,431,NaN,knife,truck,0.05,0431_nse_dnn_0.05_truck_10_n03417042_7187.png
swin_base,1,432,NaN,dog,bottle,0.35,0432_nse_dnn_0.35_bottle_10_n04557648_2954.png
swin_base,1,433,NaN,dog,elephant,0.35,0433_nse_dnn_0.35_elephant_10_n02504013_6645.png
swin_base,1,434,NaN,dog,keyboard,0.10,0434_nse_dnn_0.10_keyboard_10_n04505470_6876.png
swin_base,1,435,NaN,knife,bird,0.20,0435_nse_dnn_0.20_bird_10_n02056570_3286.png
swin_base,1,436,NaN,knife,bird,0.90,0436_nse_dnn_0.90_bird_10_n02037110_8826.png
swin_base,1,437,NaN,oven,car,0.00,0437_nse_dnn_0.00_car_10_n03100240_11400.png
swin_base,1,438,NaN,truck,bird,0.60,0438_nse_dnn_0.60_bird_10_n02018795_6389.png
swin_base,1,439,NaN,knife,oven,0.35,0439_nse_dnn_0.35_oven_10_n04111531_2458.png
swin_base,1,440,NaN,knife,cat,0.60,0440_nse_dnn_0.60_cat_10_n02123159_2256.png
swin_base,1,441,NaN,dog,elephant,0.03,0441_nse_dnn_0.03_elephant_10_n02504458_611.png
swin_base,1,442,NaN,chair,knife,0.03,0442_nse_dnn_0.03_knife_10_n03041632_18141.png
swin_base,1,443,NaN,truck,bird,0.60,0443_nse_dnn_0.60_bird_10_n01843065_1871.png
swin_base,1,444,NaN,bottle,bird,0.05,0444_nse_dnn_0.05_bird_10_n01833805_7361.png
swin_base,1,445,NaN,dog,elephant,0.20,0445_nse_dnn_0.20_elephant_10_n02504458_5827.png
swin_base,1,446,NaN,dog,bicycle,0.35,0446_nse_dnn_0.35_bicycle_10_n02835271_5825.png
swin_base,1,447,NaN,knife,bear,0.90,0447_nse_dnn_0.90_bear_10_n02134084_12801.png
swin_base,1,448,NaN,knife,cat,0.10,0448_nse_dnn_0.10_cat_10_n02123394_3611.png
swin_base,1,449,NaN,dog,chair,0.35,0449_nse_dnn_0.35_chair_10_n04429376_9589.png
swin_base,1,450,NaN,truck,cat,0.35,0450_nse_dnn_0.35_cat_10_n02123394_3885.png
swin_base,1,451,NaN,knife,elephant,0.90,0451_nse_dnn_0.90_elephant_10_n02504013_22633.png
swin_base,1,452,NaN,dog,car,0.20,0452_nse_dnn_0.20_car_10_n02814533_2271.png
swin_base,1,453,NaN,knife,truck,0.05,0453_nse_dnn_0.05_truck_10_n03417042_10150.png
swin_base,1,454,NaN,truck,oven,0.35,0454_nse_dnn_0.35_oven_10_n04111531_10583.png
swin_base,1,455,NaN,oven,bottle,0.03,0455_nse_dnn_0.03_bottle_10_n03937543_1602.png
swin_base,1,456,NaN,clock,knife,0.03,0456_nse_dnn_0.03_knife_10_n03041632_3504.png
swin_base,1,457,NaN,bird,bicycle,0.03,0457_nse_dnn_0.03_bicycle_10_n03792782_1004.png
swin_base,1,458,NaN,dog,cat,0.05,0458_nse_dnn_0.05_cat_10_n02123394_8172.png
swin_base,1,459,NaN,knife,elephant,0.10,0459_nse_dnn_0.10_elephant_10_n02504013_156.png
swin_base,1,460,NaN,oven,car,0.03,0460_nse_dnn_0.03_car_10_n04285008_5559.png
swin_base,1,461,NaN,truck,elephant,0.35,0461_nse_dnn_0.35_elephant_10_n02504458_6694.png
swin_base,1,462,NaN,truck,car,0.90,0462_nse_dnn_0.90_car_10_n04285008_15003.png
swin_base,1,463,NaN,knife,chair,0.10,0463_nse_dnn_0.10_chair_10_n03376595_15723.png
swin_base,1,464,NaN,truck,knife,0.60,0464_nse_dnn_0.60_knife_10_n03041632_48816.png
swin_base,1,465,NaN,knife,chair,0.90,0465_nse_dnn_0.90_chair_10_n03376595_4142.png
swin_base,1,466,NaN,knife,car,0.60,0466_nse_dnn_0.60_car_10_n04285008_2363.png
swin_base,1,467,NaN,knife,truck,0.10,0467_nse_dnn_0.10_truck_10_n03417042_7335.png
swin_base,1,468,NaN,truck,oven,0.00,0468_nse_dnn_0.00_oven_10_n04111531_6313.png
swin_base,1,469,NaN,clock,bird,0.05,0469_nse_dnn_0.05_bird_10_n02033041_6728.png
swin_base,1,470,NaN,oven,clock,0.00,0470_nse_dnn_0.00_clock_10_n04548280_1032.png
swin_base,1,471,NaN,elephant,airplane,0.03,0471_nse_dnn_0.03_airplane_10_n02690373_1983.png
swin_base,1,472,NaN,truck,keyboard,0.00,0472_nse_dnn_0.00_keyboard_10_n03085013_23369.png
swin_base,1,473,NaN,knife,elephant,0.90,0473_nse_dnn_0.90_elephant_10_n02504458_2419.png
swin_base,1,474,NaN,knife,truck,0.20,0474_nse_dnn_0.20_truck_10_n04467665_72022.png
swin_base,1,475,NaN,knife,bottle,0.05,0475_nse_dnn_0.05_bottle_10_n04579145_5289.png
swin_base,1,476,NaN,oven,clock,0.05,0476_nse_dnn_0.05_clock_10_n02708093_2898.png
swin_base,1,477,NaN,dog,dog,0.20,0477_nse_dnn_0.20_dog_10_n02101556_4066.png
swin_base,1,478,NaN,knife,car,0.90,0478_nse_dnn_0.90_car_10_n04285008_17052.png
swin_base,1,479,NaN,knife,truck,0.90,0479_nse_dnn_0.90_truck_10_n04467665_37811.png
swin_base,1,480,NaN,knife,keyboard,0.20,0480_nse_dnn_0.20_keyboard_10_n04505470_578.png
swin_base,1,481,NaN,knife,cat,0.10,0481_nse_dnn_0.10_cat_10_n02123045_2721.png
swin_base,1,482,NaN,knife,car,0.10,0482_nse_dnn_0.10_car_10_n04285008_7776.png
swin_base,1,483,NaN,knife,bottle,0.90,0483_nse_dnn_0.90_bottle_10_n04591713_2014.png
swin_base,1,484,NaN,knife,bottle,0.10,0484_nse_dnn_0.10_bottle_10_n03983396_9662.png
swin_base,1,485,NaN,dog,bicycle,0.35,0485_nse_dnn_0.35_bicycle_10_n03792782_10367.png
swin_base,1,486,NaN,knife,keyboard,0.60,0486_nse_dnn_0.60_keyboard_10_n03085013_22942.png
swin_base,1,487,NaN,dog,cat,0.00,0487_nse_dnn_0.00_cat_10_n02123597_3896.png
swin_base,1,488,NaN,bird,bicycle,0.03,0488_nse_dnn_0.03_bicycle_10_n03792782_2649.png
swin_base,1,489,NaN,knife,bear,0.10,0489_nse_dnn_0.10_bear_10_n02133161_2476.png
swin_base,1,490,NaN,knife,car,0.10,0490_nse_dnn_0.10_car_10_n04285008_7249.png
swin_base,1,491,NaN,dog,chair,0.20,0491_nse_dnn_0.20_chair_10_n04099969_8604.png
swin_base,1,492,NaN,bird,bicycle,0.05,0492_nse_dnn_0.05_bicycle_10_n02835271_5963.png
swin_base,1,493,NaN,knife,airplane,0.90,0493_nse_dnn_0.90_airplane_10_n02690373_17011.png
swin_base,1,494,NaN,knife,bird,0.90,0494_nse_dnn_0.90_bird_10_n02028035_889.png
swin_base,1,495,NaN,knife,cat,0.60,0495_nse_dnn_0.60_cat_10_n02123159_7949.png
swin_base,1,496,NaN,oven,car,0.03,0496_nse_dnn_0.03_car_10_n03100240_15686.png
swin_base,1,497,NaN,dog,cat,0.35,0497_nse_dnn_0.35_cat_10_n02123159_6106.png
swin_base,1,498,NaN,dog,cat,0.00,0498_nse_dnn_0.00_cat_10_n02123394_7105.png
swin_base,1,499,NaN,dog,clock,0.35,0499_nse_dnn_0.35_clock_10_n04548280_4747.png
swin_base,1,500,NaN,dog,elephant,0.20,0500_nse_dnn_0.20_elephant_10_n02504458_975.png
swin_base,1,501,NaN,dog,boat,0.20,0501_nse_dnn_0.20_boat_10_n03344393_11590.png
swin_base,1,502,NaN,truck,airplane,0.90,0502_nse_dnn_0.90_airplane_10_n02690373_2026.png
swin_base,1,503,NaN,knife,clock,0.60,0503_nse_dnn_0.60_clock_10_n03196217_2346.png
swin_base,1,504,NaN,truck,truck,0.60,0504_nse_dnn_0.60_truck_10_n04467665_34932.png
swin_base,1,505,NaN,knife,oven,0.35,0505_nse_dnn_0.35_oven_10_n04111531_13625.png
swin_base,1,506,NaN,elephant,airplane,0.00,0506_nse_dnn_0.00_airplane_10_n02690373_8666.png
swin_base,1,507,NaN,truck,oven,0.35,0507_nse_dnn_0.35_oven_10_n04111531_4148.png
swin_base,1,508,NaN,dog,dog,0.00,0508_nse_dnn_0.00_dog_10_n02107683_7021.png
swin_base,1,509,NaN,dog,bird,0.05,0509_nse_dnn_0.05_bird_10_n02025239_22440.png
swin_base,1,510,NaN,truck,elephant,0.90,0510_nse_dnn_0.90_elephant_10_n02504013_7032.png
swin_base,1,511,NaN,knife,truck,0.90,0511_nse_dnn_0.90_truck_10_n03417042_10788.png
swin_base,1,512,NaN,knife,knife,0.05,0512_nse_dnn_0.05_knife_10_n03041632_86118.png
swin_base,1,513,NaN,car,bottle,0.00,0513_nse_dnn_0.00_bottle_10_n04557648_9790.png
swin_base,1,514,NaN,knife,chair,0.90,0514_nse_dnn_0.90_chair_10_n02791124_8788.png
swin_base,1,515,NaN,bird,dog,0.03,0515_nse_dnn_0.03_dog_10_n02095314_4996.png
swin_base,1,516,NaN,knife,keyboard,0.20,0516_nse_dnn_0.20_keyboard_10_n04505470_4679.png
swin_base,1,517,NaN,clock,bird,0.03,0517_nse_dnn_0.03_bird_10_n01860187_24935.png
swin_base,1,518,NaN,knife,bicycle,0.60,0518_nse_dnn_0.60_bicycle_10_n02835271_14123.png
swin_base,1,519,NaN,knife,boat,0.10,0519_nse_dnn_0.10_boat_10_n03344393_7075.png
swin_base,1,520,NaN,elephant,knife,0.03,0520_nse_dnn_0.03_knife_10_n03041632_13130.png
swin_base,1,521,NaN,knife,bottle,0.20,0521_nse_dnn_0.20_bottle_10_n04591713_5569.png
swin_base,1,522,NaN,dog,elephant,0.05,0522_nse_dnn_0.05_elephant_10_n02504013_19753.png
swin_base,1,523,NaN,truck,dog,0.60,0523_nse_dnn_0.60_dog_10_n02099849_4819.png
swin_base,1,524,NaN,truck,elephant,0.90,0524_nse_dnn_0.90_elephant_10_n02504458_12938.png
swin_base,1,525,NaN,knife,bottle,0.03,0525_nse_dnn_0.03_bottle_10_n02823428_901.png
swin_base,1,526,NaN,elephant,bicycle,0.00,0526_nse_dnn_0.00_bicycle_10_n03792782_2024.png
swin_base,1,527,NaN,knife,truck,0.05,0527_nse_dnn_0.05_truck_10_n03417042_24856.png
swin_base,1,528,NaN,dog,elephant,0.00,0528_nse_dnn_0.00_elephant_10_n02504013_19694.png
swin_base,1,529,NaN,dog,bird,0.20,0529_nse_dnn_0.20_bird_10_n01530575_10119.png
swin_base,1,530,NaN,dog,bottle,0.20,0530_nse_dnn_0.20_bottle_10_n04557648_954.png
swin_base,1,531,NaN,knife,cat,0.90,0531_nse_dnn_0.90_cat_10_n02123159_277.png
swin_base,1,532,NaN,elephant,knife,0.00,0532_nse_dnn_0.00_knife_10_n03041632_289.png
swin_base,1,533,NaN,dog,truck,0.35,0533_nse_dnn_0.35_truck_10_n04467665_450.png
swin_base,1,534,NaN,truck,knife,0.00,0534_nse_dnn_0.00_knife_10_n03041632_1607.png
swin_base,1,535,NaN,truck,bird,0.20,0535_nse_dnn_0.20_bird_10_n01532829_4692.png
swin_base,1,536,NaN,knife,dog,0.10,0536_nse_dnn_0.10_dog_10_n02102177_4771.png
swin_base,1,537,NaN,knife,car,0.10,0537_nse_dnn_0.10_car_10_n04285008_14554.png
swin_base,1,538,NaN,bird,clock,0.00,0538_nse_dnn_0.00_clock_10_n04548280_3716.png
swin_base,1,539,NaN,oven,car,0.03,0539_nse_dnn_0.03_car_10_n04285008_6849.png
swin_base,1,540,NaN,truck,keyboard,0.35,0540_nse_dnn_0.35_keyboard_10_n03085013_24467.png
swin_base,1,541,NaN,truck,clock,0.35,0541_nse_dnn_0.35_clock_10_n03196217_6672.png
swin_base,1,542,NaN,knife,dog,0.10,0542_nse_dnn_0.10_dog_10_n02105251_5570.png
swin_base,1,543,NaN,truck,dog,0.35,0543_nse_dnn_0.35_dog_10_n02107574_3352.png
swin_base,1,544,NaN,truck,boat,0.60,0544_nse_dnn_0.60_boat_10_n03662601_8191.png
swin_base,1,545,NaN,bird,boat,0.00,0545_nse_dnn_0.00_boat_10_n04612504_30617.png
swin_base,1,546,NaN,knife,bear,0.60,0546_nse_dnn_0.60_bear_10_n02132136_2900.png
swin_base,1,547,NaN,knife,truck,0.10,0547_nse_dnn_0.10_truck_10_n03417042_8139.png
swin_base,1,548,NaN,chair,chair,0.03,0548_nse_dnn_0.03_chair_10_n03376595_5112.png
swin_base,1,549,NaN,clock,bird,0.05,0549_nse_dnn_0.05_bird_10_n02006656_10360.png
swin_base,1,550,NaN,dog,elephant,0.20,0550_nse_dnn_0.20_elephant_10_n02504458_2799.png
swin_base,1,551,NaN,knife,airplane,0.10,0551_nse_dnn_0.10_airplane_10_n02690373_6096.png
swin_base,1,552,NaN,chair,bird,0.20,0552_nse_dnn_0.20_bird_10_n02002556_139.png
swin_base,1,553,NaN,truck,car,0.00,0553_nse_dnn_0.00_car_10_n04285008_3056.png
swin_base,1,554,NaN,knife,knife,0.10,0554_nse_dnn_0.10_knife_10_n03041632_14774.png
swin_base,1,555,NaN,dog,oven,0.20,0555_nse_dnn_0.20_oven_10_n04111531_2163.png
swin_base,1,556,NaN,dog,cat,0.20,0556_nse_dnn_0.20_cat_10_n02123597_30864.png
swin_base,1,557,NaN,dog,boat,0.35,0557_nse_dnn_0.35_boat_10_n02951358_33559.png
swin_base,1,558,NaN,dog,bicycle,0.60,0558_nse_dnn_0.60_bicycle_10_n02835271_4619.png
swin_base,1,559,NaN,bicycle,truck,0.03,0559_nse_dnn_0.03_truck_10_n03796401_21261.png
swin_base,1,560,NaN,knife,airplane,0.10,0560_nse_dnn_0.10_airplane_10_n02690373_2496.png
swin_base,1,561,NaN,dog,boat,0.35,0561_nse_dnn_0.35_boat_10_n03662601_5419.png
swin_base,1,562,NaN,elephant,airplane,0.03,0562_nse_dnn_0.03_airplane_10_n02690373_7686.png
swin_base,1,563,NaN,knife,oven,0.90,0563_nse_dnn_0.90_oven_10_n04111531_5246.png
swin_base,1,564,NaN,dog,bicycle,0.60,0564_nse_dnn_0.60_bicycle_10_n03792782_1099.png
swin_base,1,565,NaN,truck,chair,0.35,0565_nse_dnn_0.35_chair_10_n04099969_12909.png
swin_base,1,566,NaN,oven,elephant,0.03,0566_nse_dnn_0.03_elephant_10_n02504013_7147.png
swin_base,1,567,NaN,knife,truck,0.35,0567_nse_dnn_0.35_truck_10_n04467665_44715.png
swin_base,1,568,NaN,truck,keyboard,0.00,0568_nse_dnn_0.00_keyboard_10_n04505470_1338.png
swin_base,1,569,NaN,knife,airplane,0.90,0569_nse_dnn_0.90_airplane_10_n02690373_4982.png
swin_base,1,570,NaN,knife,bicycle,0.90,0570_nse_dnn_0.90_bicycle_10_n03792782_3754.png
swin_base,1,571,NaN,bird,bicycle,0.00,0571_nse_dnn_0.00_bicycle_10_n03792782_1418.png
swin_base,1,572,NaN,elephant,truck,0.03,0572_nse_dnn_0.03_truck_10_n03796401_26359.png
swin_base,1,573,NaN,oven,car,0.05,0573_nse_dnn_0.05_car_10_n03100240_9149.png
swin_base,1,574,NaN,knife,bird,0.90,0574_nse_dnn_0.90_bird_10_n01534433_14677.png
swin_base,1,575,NaN,oven,car,0.03,0575_nse_dnn_0.03_car_10_n03100240_8683.png
swin_base,1,576,NaN,truck,chair,0.03,0576_nse_dnn_0.03_chair_10_n03376595_524.png
swin_base,1,577,NaN,dog,dog,0.20,0577_nse_dnn_0.20_dog_10_n02094433_6402.png
swin_base,1,578,NaN,dog,car,0.20,0578_nse_dnn_0.20_car_10_n03100240_16803.png
swin_base,1,579,NaN,truck,bicycle,0.20,0579_nse_dnn_0.20_bicycle_10_n03792782_15114.png
swin_base,1,580,NaN,dog,chair,0.60,0580_nse_dnn_0.60_chair_10_n04429376_21362.png
swin_base,1,581,NaN,knife,keyboard,0.90,0581_nse_dnn_0.90_keyboard_10_n04505470_3499.png
swin_base,1,582,NaN,knife,boat,0.90,0582_nse_dnn_0.90_boat_10_n04273569_26577.png
swin_base,1,583,NaN,knife,boat,0.10,0583_nse_dnn_0.10_boat_10_n04273569_27325.png
swin_base,1,584,NaN,knife,keyboard,0.20,0584_nse_dnn_0.20_keyboard_10_n04505470_9570.png
swin_base,1,585,NaN,knife,bicycle,0.90,0585_nse_dnn_0.90_bicycle_10_n03792782_4067.png
swin_base,1,586,NaN,knife,bear,0.10,0586_nse_dnn_0.10_bear_10_n02132136_282.png
swin_base,1,587,NaN,knife,boat,0.03,0587_nse_dnn_0.03_boat_10_n04612504_30424.png
swin_base,1,588,NaN,knife,knife,0.90,0588_nse_dnn_0.90_knife_10_n03041632_4879.png
swin_base,1,589,NaN,dog,elephant,0.05,0589_nse_dnn_0.05_elephant_10_n02504458_7634.png
swin_base,1,590,NaN,dog,cat,0.35,0590_nse_dnn_0.35_cat_10_n02123597_7615.png
swin_base,1,591,NaN,knife,bicycle,0.35,0591_nse_dnn_0.35_bicycle_10_n03792782_20387.png
swin_base,1,592,NaN,knife,clock,0.10,0592_nse_dnn_0.10_clock_10_n02708093_527.png
swin_base,1,593,NaN,dog,elephant,0.05,0593_nse_dnn_0.05_elephant_10_n02504013_5501.png
swin_base,1,594,NaN,truck,dog,0.35,0594_nse_dnn_0.35_dog_10_n02106166_2273.png
swin_base,1,595,NaN,elephant,boat,0.03,0595_nse_dnn_0.03_boat_10_n03662601_34009.png
swin_base,1,596,NaN,truck,boat,0.35,0596_nse_dnn_0.35_boat_10_n04273569_12536.png
swin_base,1,597,NaN,dog,elephant,0.00,0597_nse_dnn_0.00_elephant_10_n02504013_8534.png
swin_base,1,598,NaN,truck,clock,0.35,0598_nse_dnn_0.35_clock_10_n04548280_156.png
swin_base,1,599,NaN,knife,bicycle,0.90,0599_nse_dnn_0.90_bicycle_10_n02835271_542.png
swin_base,1,600,NaN,clock,bear,0.00,0600_nse_dnn_0.00_bear_10_n02133161_5434.png
swin_base,1,601,NaN,knife,truck,0.60,0601_nse_dnn_0.60_truck_10_n04467665_63829.png
swin_base,1,602,NaN,knife,oven,0.90,0602_nse_dnn_0.90_oven_10_n04111531_10220.png
swin_base,1,603,NaN,truck,boat,0.60,0603_nse_dnn_0.60_boat_10_n04273569_28074.png
swin_base,1,604,NaN,dog,cat,0.00,0604_nse_dnn_0.00_cat_10_n02123394_2482.png
swin_base,1,605,NaN,truck,boat,0.90,0605_nse_dnn_0.90_boat_10_n03662601_20381.png
swin_base,1,606,NaN,knife,bird,0.35,0606_nse_dnn_0.35_bird_10_n01817953_12511.png
swin_base,1,607,NaN,knife,cat,0.05,0607_nse_dnn_0.05_cat_10_n02125311_5346.png
swin_base,1,608,NaN,bird,oven,0.00,0608_nse_dnn_0.00_oven_10_n04111531_14758.png
swin_base,1,609,NaN,knife,bird,0.10,0609_nse_dnn_0.10_bird_10_n02002556_1398.png
swin_base,1,610,NaN,bottle,knife,0.05,0610_nse_dnn_0.05_knife_10_n03041632_99912.png
swin_base,1,611,NaN,knife,airplane,0.05,0611_nse_dnn_0.05_airplane_10_n02690373_1075.png
swin_base,1,612,NaN,dog,cat,0.35,0612_nse_dnn_0.35_cat_10_n02123045_10834.png
swin_base,1,613,NaN,truck,car,0.60,0613_nse_dnn_0.60_car_10_n02814533_41478.png
swin_base,1,614,NaN,dog,cat,0.00,0614_nse_dnn_0.00_cat_10_n02123394_1602.png
swin_base,1,615,NaN,oven,knife,0.03,0615_nse_dnn_0.03_knife_10_n03041632_21017.png
swin_base,1,616,NaN,dog,bear,0.03,0616_nse_dnn_0.03_bear_10_n02134084_572.png
swin_base,1,617,NaN,truck,clock,0.05,0617_nse_dnn_0.05_clock_10_n03196217_3987.png
swin_base,1,618,NaN,dog,dog,0.03,0618_nse_dnn_0.03_dog_10_n02098286_6303.png
swin_base,1,619,NaN,oven,keyboard,0.00,0619_nse_dnn_0.00_keyboard_10_n04505470_4379.png
swin_base,1,620,NaN,elephant,boat,0.05,0620_nse_dnn_0.05_boat_10_n04273569_15138.png
swin_base,1,621,NaN,knife,airplane,0.90,0621_nse_dnn_0.90_airplane_10_n02690373_18234.png
swin_base,1,622,NaN,knife,clock,0.90,0622_nse_dnn_0.90_clock_10_n03196217_2179.png
swin_base,1,623,NaN,bird,bottle,0.03,0623_nse_dnn_0.03_bottle_10_n04579145_6860.png
swin_base,1,624,NaN,truck,car,0.35,0624_nse_dnn_0.35_car_10_n02814533_81455.png
swin_base,1,625,NaN,truck,car,0.03,0625_nse_dnn_0.03_car_10_n04285008_6278.png
swin_base,1,626,NaN,elephant,truck,0.05,0626_nse_dnn_0.05_truck_10_n04467665_3612.png
swin_base,1,627,NaN,knife,bottle,0.10,0627_nse_dnn_0.10_bottle_10_n03983396_10251.png
swin_base,1,628,NaN,knife,dog,0.60,0628_nse_dnn_0.60_dog_10_n02086646_6407.png
swin_base,1,629,NaN,dog,oven,0.35,0629_nse_dnn_0.35_oven_10_n04111531_21404.png
swin_base,1,630,NaN,knife,bottle,0.05,0630_nse_dnn_0.05_bottle_10_n03983396_3185.png
swin_base,1,631,NaN,dog,elephant,0.05,0631_nse_dnn_0.05_elephant_10_n02504013_13766.png
swin_base,1,632,NaN,dog,bird,0.05,0632_nse_dnn_0.05_bird_10_n01514859_10633.png
swin_base,1,633,NaN,chair,chair,0.05,0633_nse_dnn_0.05_chair_10_n03376595_2351.png
swin_base,1,634,NaN,car,bird,0.00,0634_nse_dnn_0.00_bird_10_n02009912_31837.png
swin_base,1,635,NaN,truck,dog,0.90,0635_nse_dnn_0.90_dog_10_n02110958_8971.png
swin_base,1,636,NaN,dog,dog,0.20,0636_nse_dnn_0.20_dog_10_n02113799_3680.png
swin_base,1,637,NaN,truck,airplane,0.35,0637_nse_dnn_0.35_airplane_10_n02690373_6491.png
swin_base,1,638,NaN,knife,clock,0.60,0638_nse_dnn_0.60_clock_10_n04548280_1438.png
swin_base,1,639,NaN,knife,airplane,0.05,0639_nse_dnn_0.05_airplane_10_n02690373_2981.png
swin_base,1,640,NaN,oven,car,0.03,0640_nse_dnn_0.03_car_10_n04285008_7155.png
swin_base,1,641,NaN,truck,chair,0.20,0641_nse_dnn_0.20_chair_10_n03376595_5909.png
swin_base,1,642,NaN,bird,elephant,0.60,0642_nse_dnn_0.60_elephant_10_n02504013_5876.png
swin_base,1,643,NaN,dog,cat,0.00,0643_nse_dnn_0.00_cat_10_n02125311_25104.png
swin_base,1,644,NaN,knife,dog,0.90,0644_nse_dnn_0.90_dog_10_n02111277_11664.png
swin_base,1,645,NaN,truck,airplane,0.35,0645_nse_dnn_0.35_airplane_10_n02690373_2185.png
swin_base,1,646,NaN,truck,bird,0.05,0646_nse_dnn_0.05_bird_10_n02017213_7721.png
swin_base,1,647,NaN,oven,boat,0.05,0647_nse_dnn_0.05_boat_10_n03662601_25577.png
swin_base,1,648,NaN,dog,elephant,0.03,0648_nse_dnn_0.03_elephant_10_n02504013_8028.png
swin_base,1,649,NaN,dog,airplane,0.60,0649_nse_dnn_0.60_airplane_10_n02690373_6665.png
swin_base,1,650,NaN,truck,bird,0.60,0650_nse_dnn_0.60_bird_10_n02011460_2611.png
swin_base,1,651,NaN,knife,knife,0.10,0651_nse_dnn_0.10_knife_10_n03041632_90407.png
swin_base,1,652,NaN,elephant,airplane,0.03,0652_nse_dnn_0.03_airplane_10_n02690373_10817.png
swin_base,1,653,NaN,dog,bird,0.00,0653_nse_dnn_0.00_bird_10_n02051845_15350.png
swin_base,1,654,NaN,dog,knife,0.60,0654_nse_dnn_0.60_knife_10_n03041632_4269.png
swin_base,1,655,NaN,knife,bottle,0.03,0655_nse_dnn_0.03_bottle_10_n04560804_11426.png
swin_base,1,656,NaN,knife,bicycle,0.20,0656_nse_dnn_0.20_bicycle_10_n03792782_7050.png
swin_base,1,657,NaN,dog,elephant,0.05,0657_nse_dnn_0.05_elephant_10_n02504013_9144.png
swin_base,1,658,NaN,knife,bear,0.90,0658_nse_dnn_0.90_bear_10_n02134418_5630.png
swin_base,1,659,NaN,dog,bear,0.00,0659_nse_dnn_0.00_bear_10_n02133161_16147.png
swin_base,1,660,NaN,truck,keyboard,0.05,0660_nse_dnn_0.05_keyboard_10_n03085013_6857.png
swin_base,1,661,NaN,knife,car,0.90,0661_nse_dnn_0.90_car_10_n02814533_72079.png
swin_base,1,662,NaN,elephant,chair,0.00,0662_nse_dnn_0.00_chair_10_n04429376_5770.png
swin_base,1,663,NaN,knife,dog,0.05,0663_nse_dnn_0.05_dog_10_n02112706_5500.png
swin_base,1,664,NaN,knife,boat,0.60,0664_nse_dnn_0.60_boat_10_n03662601_32391.png
swin_base,1,665,NaN,dog,truck,0.20,0665_nse_dnn_0.20_truck_10_n03796401_16046.png
swin_base,1,666,NaN,truck,bottle,0.35,0666_nse_dnn_0.35_bottle_10_n04557648_310.png
swin_base,1,667,NaN,elephant,chair,0.00,0667_nse_dnn_0.00_chair_10_n04429376_14995.png
swin_base,1,668,NaN,oven,oven,0.05,0668_nse_dnn_0.05_oven_10_n04111531_24096.png
swin_base,1,669,NaN,clock,bird,0.03,0669_nse_dnn_0.03_bird_10_n01855672_12414.png
swin_base,1,670,NaN,truck,chair,0.90,0670_nse_dnn_0.90_chair_10_n03376595_4887.png
swin_base,1,671,NaN,knife,bottle,0.20,0671_nse_dnn_0.20_bottle_10_n04557648_11992.png
swin_base,1,672,NaN,dog,cat,0.20,0672_nse_dnn_0.20_cat_10_n02124075_951.png
swin_base,1,673,NaN,knife,chair,0.10,0673_nse_dnn_0.10_chair_10_n04099969_8647.png
swin_base,1,674,NaN,knife,bottle,0.00,0674_nse_dnn_0.00_bottle_10_n04591713_2808.png
swin_base,1,675,NaN,dog,airplane,0.20,0675_nse_dnn_0.20_airplane_10_n02690373_15097.png
swin_base,1,676,NaN,boat,knife,0.00,0676_nse_dnn_0.00_knife_10_n03041632_62810.png
swin_base,1,677,NaN,knife,airplane,0.20,0677_nse_dnn_0.20_airplane_10_n02690373_1441.png
swin_base,1,678,NaN,knife,clock,0.90,0678_nse_dnn_0.90_clock_10_n04548280_942.png
swin_base,1,679,NaN,knife,bear,0.10,0679_nse_dnn_0.10_bear_10_n02133161_4060.png
swin_base,1,680,NaN,oven,chair,0.03,0680_nse_dnn_0.03_chair_10_n03376595_8227.png
swin_base,1,681,NaN,dog,boat,0.20,0681_nse_dnn_0.20_boat_10_n02951358_28889.png
swin_base,1,682,NaN,oven,boat,0.00,0682_nse_dnn_0.00_boat_10_n04273569_1141.png
swin_base,1,683,NaN,dog,dog,0.00,0683_nse_dnn_0.00_dog_10_n02098105_5905.png
swin_base,1,684,NaN,knife,bird,0.35,0684_nse_dnn_0.35_bird_10_n01534433_12864.png
swin_base,1,685,NaN,car,keyboard,0.00,0685_nse_dnn_0.00_keyboard_10_n04505470_6847.png
swin_base,1,686,NaN,truck,car,0.60,0686_nse_dnn_0.60_car_10_n02814533_92286.png
swin_base,1,687,NaN,truck,clock,0.05,0687_nse_dnn_0.05_clock_10_n02708093_3462.png
swin_base,1,688,NaN,dog,elephant,0.00,0688_nse_dnn_0.00_elephant_10_n02504013_3602.png
swin_base,1,689,NaN,dog,clock,0.20,0689_nse_dnn_0.20_clock_10_n02708093_2800.png
swin_base,1,690,NaN,bird,bottle,0.03,0690_nse_dnn_0.03_bottle_10_n03983396_4627.png
swin_base,1,691,NaN,knife,elephant,0.60,0691_nse_dnn_0.60_elephant_10_n02504458_6835.png
swin_base,1,692,NaN,knife,bicycle,0.10,0692_nse_dnn_0.10_bicycle_10_n02835271_7594.png
swin_base,1,693,NaN,knife,oven,0.10,0693_nse_dnn_0.10_oven_10_n04111531_538.png
swin_base,1,694,NaN,bird,elephant,0.03,0694_nse_dnn_0.03_elephant_10_n02504013_10909.png
swin_base,1,695,NaN,knife,boat,0.90,0695_nse_dnn_0.90_boat_10_n03344393_771.png
swin_base,1,696,NaN,knife,boat,0.10,0696_nse_dnn_0.10_boat_10_n02951358_15413.png
swin_base,1,697,NaN,truck,cat,0.60,0697_nse_dnn_0.60_cat_10_n02124075_12176.png
swin_base,1,698,NaN,truck,airplane,0.60,0698_nse_dnn_0.60_airplane_10_n02690373_5197.png
swin_base,1,699,NaN,bird,bicycle,0.00,0699_nse_dnn_0.00_bicycle_10_n03792782_7101.png
swin_base,1,700,NaN,truck,bicycle,0.60,0700_nse_dnn_0.60_bicycle_10_n02835271_358.png
swin_base,1,701,NaN,dog,dog,0.03,0701_nse_dnn_0.03_dog_10_n02092002_15319.png
swin_base,1,702,NaN,truck,airplane,0.10,0702_nse_dnn_0.10_airplane_10_n02690373_3818.png
swin_base,1,703,NaN,knife,dog,0.10,0703_nse_dnn_0.10_dog_10_n02097130_7349.png
swin_base,1,704,NaN,dog,elephant,0.20,0704_nse_dnn_0.20_elephant_10_n02504013_7210.png
swin_base,1,705,NaN,dog,clock,0.20,0705_nse_dnn_0.20_clock_10_n04548280_1109.png
swin_base,1,706,NaN,truck,boat,0.35,0706_nse_dnn_0.35_boat_10_n03344393_4143.png
swin_base,1,707,NaN,dog,oven,0.60,0707_nse_dnn_0.60_oven_10_n04111531_326.png
swin_base,1,708,NaN,truck,bottle,0.35,0708_nse_dnn_0.35_bottle_10_n04557648_3529.png
swin_base,1,709,NaN,knife,knife,0.90,0709_nse_dnn_0.90_knife_10_n03041632_27960.png
swin_base,1,710,NaN,dog,elephant,0.00,0710_nse_dnn_0.00_elephant_10_n02504458_8889.png
swin_base,1,711,NaN,elephant,knife,0.05,0711_nse_dnn_0.05_knife_10_n03041632_38610.png
swin_base,1,712,NaN,dog,bear,0.00,0712_nse_dnn_0.00_bear_10_n02132136_2263.png
swin_base,1,713,NaN,elephant,bicycle,0.03,0713_nse_dnn_0.03_bicycle_10_n02835271_6167.png
swin_base,1,714,NaN,car,bird,0.00,0714_nse_dnn_0.00_bird_10_n02027492_597.png
swin_base,1,715,NaN,knife,boat,0.60,0715_nse_dnn_0.60_boat_10_n03662601_7585.png
swin_base,1,716,NaN,knife,knife,0.10,0716_nse_dnn_0.10_knife_10_n03041632_22738.png
swin_base,1,717,NaN,knife,clock,0.10,0717_nse_dnn_0.10_clock_10_n03196217_3140.png
swin_base,1,718,NaN,truck,truck,0.90,0718_nse_dnn_0.90_truck_10_n03417042_27988.png
swin_base,1,719,NaN,dog,bear,0.60,0719_nse_dnn_0.60_bear_10_n02133161_97.png
swin_base,1,720,NaN,knife,bottle,0.10,0720_nse_dnn_0.10_bottle_10_n04579145_815.png
swin_base,1,721,NaN,knife,clock,0.05,0721_nse_dnn_0.05_clock_10_n03196217_8792.png
swin_base,1,722,NaN,knife,clock,0.90,0722_nse_dnn_0.90_clock_10_n04548280_2827.png
swin_base,1,723,NaN,truck,knife,0.35,0723_nse_dnn_0.35_knife_10_n03041632_2153.png
swin_base,1,724,NaN,truck,car,0.60,0724_nse_dnn_0.60_car_10_n04285008_5078.png
swin_base,1,725,NaN,truck,airplane,0.60,0725_nse_dnn_0.60_airplane_10_n02690373_3377.png
swin_base,1,726,NaN,truck,bicycle,0.20,0726_nse_dnn_0.20_bicycle_10_n02835271_22623.png
swin_base,1,727,NaN,elephant,boat,0.00,0727_nse_dnn_0.00_boat_10_n03344393_1125.png
swin_base,1,728,NaN,knife,keyboard,0.10,0728_nse_dnn_0.10_keyboard_10_n04505470_4507.png
swin_base,1,729,NaN,bottle,knife,0.00,0729_nse_dnn_0.00_knife_10_n03041632_25512.png
swin_base,1,730,NaN,truck,airplane,0.35,0730_nse_dnn_0.35_airplane_10_n02690373_8524.png
swin_base,1,731,NaN,knife,airplane,0.10,0731_nse_dnn_0.10_airplane_10_n02690373_2521.png
swin_base,1,732,NaN,truck,clock,0.35,0732_nse_dnn_0.35_clock_10_n02708093_4415.png
swin_base,1,733,NaN,knife,bear,0.10,0733_nse_dnn_0.10_bear_10_n02132136_7253.png
swin_base,1,734,NaN,dog,knife,0.20,0734_nse_dnn_0.20_knife_10_n03041632_7448.png
swin_base,1,735,NaN,bird,dog,0.20,0735_nse_dnn_0.20_dog_10_n02110185_10879.png
swin_base,1,736,NaN,bicycle,keyboard,0.00,0736_nse_dnn_0.00_keyboard_10_n03085013_23289.png
swin_base,1,737,NaN,truck,chair,0.35,0737_nse_dnn_0.35_chair_10_n04099969_6425.png
swin_base,1,738,NaN,elephant,keyboard,0.03,0738_nse_dnn_0.03_keyboard_10_n03085013_23697.png
swin_base,1,739,NaN,dog,bear,0.00,0739_nse_dnn_0.00_bear_10_n02133161_11816.png
swin_base,1,740,NaN,dog,dog,0.35,0740_nse_dnn_0.35_dog_10_n02097474_10860.png
swin_base,1,741,NaN,elephant,car,0.05,0741_nse_dnn_0.05_car_10_n02814533_59264.png
swin_base,1,742,NaN,elephant,boat,0.03,0742_nse_dnn_0.03_boat_10_n03344393_6577.png
swin_base,1,743,NaN,knife,car,0.60,0743_nse_dnn_0.60_car_10_n04285008_12501.png
swin_base,1,744,NaN,knife,dog,0.90,0744_nse_dnn_0.90_dog_10_n02105505_6715.png
swin_base,1,745,NaN,knife,elephant,0.90,0745_nse_dnn_0.90_elephant_10_n02504458_12555.png
swin_base,1,746,NaN,dog,cat,0.35,0746_nse_dnn_0.35_cat_10_n02123159_5950.png
swin_base,1,747,NaN,knife,bird,0.90,0747_nse_dnn_0.90_bird_10_n02018795_5868.png
swin_base,1,748,NaN,dog,dog,0.05,0748_nse_dnn_0.05_dog_10_n02086646_4881.png
swin_base,1,749,NaN,truck,chair,0.60,0749_nse_dnn_0.60_chair_10_n04099969_3052.png
swin_base,1,750,NaN,elephant,truck,0.03,0750_nse_dnn_0.03_truck_10_n03796401_6444.png
swin_base,1,751,NaN,oven,truck,0.05,0751_nse_dnn_0.05_truck_10_n03417042_94.png
swin_base,1,752,NaN,truck,knife,0.35,0752_nse_dnn_0.35_knife_10_n03041632_54732.png
swin_base,1,753,NaN,truck,knife,0.10,0753_nse_dnn_0.10_knife_10_n03041632_29862.png
swin_base,1,754,NaN,truck,bird,0.60,0754_nse_dnn_0.60_bird_10_n01530575_280.png
swin_base,1,755,NaN,oven,boat,0.00,0755_nse_dnn_0.00_boat_10_n03662601_8398.png
swin_base,1,756,NaN,chair,chair,0.05,0756_nse_dnn_0.05_chair_10_n04099969_5242.png
swin_base,1,757,NaN,knife,bicycle,0.60,0757_nse_dnn_0.60_bicycle_10_n02835271_5821.png
swin_base,1,758,NaN,knife,bicycle,0.90,0758_nse_dnn_0.90_bicycle_10_n03792782_37794.png
swin_base,1,759,NaN,knife,bicycle,0.10,0759_nse_dnn_0.10_bicycle_10_n02835271_8324.png
swin_base,1,760,NaN,dog,chair,0.10,0760_nse_dnn_0.10_chair_10_n04099969_3393.png
swin_base,1,761,NaN,truck,bottle,0.90,0761_nse_dnn_0.90_bottle_10_n03937543_4463.png
swin_base,1,762,NaN,knife,truck,0.05,0762_nse_dnn_0.05_truck_10_n03796401_13349.png
swin_base,1,763,NaN,elephant,chair,0.03,0763_nse_dnn_0.03_chair_10_n04099969_5453.png
swin_base,1,764,NaN,oven,chair,0.05,0764_nse_dnn_0.05_chair_10_n02791124_7142.png
swin_base,1,765,NaN,truck,oven,0.00,0765_nse_dnn_0.00_oven_10_n04111531_3270.png
swin_base,1,766,NaN,dog,oven,0.20,0766_nse_dnn_0.20_oven_10_n04111531_5727.png
swin_base,1,767,NaN,car,knife,0.00,0767_nse_dnn_0.00_knife_10_n03041632_19614.png
swin_base,1,768,NaN,dog,bicycle,0.35,0768_nse_dnn_0.35_bicycle_10_n02835271_24131.png
swin_base,1,769,NaN,bottle,bird,0.00,0769_nse_dnn_0.00_bird_10_n01820546_4535.png
swin_base,1,770,NaN,dog,clock,0.20,0770_nse_dnn_0.20_clock_10_n03196217_5827.png
swin_base,1,771,NaN,knife,car,0.90,0771_nse_dnn_0.90_car_10_n03100240_1065.png
swin_base,1,772,NaN,dog,truck,0.35,0772_nse_dnn_0.35_truck_10_n04467665_47602.png
swin_base,1,773,NaN,knife,bicycle,0.90,0773_nse_dnn_0.90_bicycle_10_n02835271_9116.png
swin_base,1,774,NaN,knife,car,0.10,0774_nse_dnn_0.10_car_10_n03100240_4071.png
swin_base,1,775,NaN,knife,bird,0.90,0775_nse_dnn_0.90_bird_10_n01843383_4896.png
swin_base,1,776,NaN,dog,elephant,0.35,0776_nse_dnn_0.35_elephant_10_n02504013_20042.png
swin_base,1,777,NaN,truck,clock,0.90,0777_nse_dnn_0.90_clock_10_n04548280_3053.png
swin_base,1,778,NaN,chair,oven,0.03,0778_nse_dnn_0.03_oven_10_n04111531_7449.png
swin_base,1,779,NaN,knife,truck,0.10,0779_nse_dnn_0.10_truck_10_n03417042_5380.png
swin_base,1,780,NaN,truck,bird,0.10,0780_nse_dnn_0.10_bird_10_n02002556_5468.png
swin_base,1,781,NaN,clock,bird,0.03,0781_nse_dnn_0.03_bird_10_n02025239_19864.png
swin_base,1,782,NaN,bird,bicycle,0.03,0782_nse_dnn_0.03_bicycle_10_n03792782_3299.png
swin_base,1,783,NaN,elephant,boat,0.03,0783_nse_dnn_0.03_boat_10_n03344393_8545.png
swin_base,1,784,NaN,truck,bird,0.05,0784_nse_dnn_0.05_bird_10_n01820546_3203.png
swin_base,1,785,NaN,bicycle,knife,0.03,0785_nse_dnn_0.03_knife_10_n03041632_29580.png
swin_base,1,786,NaN,knife,bird,0.60,0786_nse_dnn_0.60_bird_10_n01530575_10612.png
swin_base,1,787,NaN,dog,cat,0.35,0787_nse_dnn_0.35_cat_10_n02123159_3299.png
swin_base,1,788,NaN,knife,bear,0.10,0788_nse_dnn_0.10_bear_10_n02134418_1749.png
swin_base,1,789,NaN,dog,elephant,0.03,0789_nse_dnn_0.03_elephant_10_n02504458_2135.png
swin_base,1,790,NaN,knife,keyboard,0.10,0790_nse_dnn_0.10_keyboard_10_n04505470_4521.png
swin_base,1,791,NaN,truck,keyboard,0.60,0791_nse_dnn_0.60_keyboard_10_n03085013_23790.png
swin_base,1,792,NaN,knife,bottle,0.60,0792_nse_dnn_0.60_bottle_10_n04579145_2485.png
swin_base,1,793,NaN,dog,elephant,0.10,0793_nse_dnn_0.10_elephant_10_n02504458_2054.png
swin_base,1,794,NaN,elephant,truck,0.00,0794_nse_dnn_0.00_truck_10_n03417042_943.png
swin_base,1,795,NaN,dog,bear,0.03,0795_nse_dnn_0.03_bear_10_n02132136_9735.png
swin_base,1,796,NaN,truck,bird,0.35,0796_nse_dnn_0.35_bird_10_n01819313_358.png
swin_base,1,797,NaN,bird,boat,0.00,0797_nse_dnn_0.00_boat_10_n03662601_31508.png
swin_base,1,798,NaN,dog,airplane,0.20,0798_nse_dnn_0.20_airplane_10_n02690373_4201.png
swin_base,1,799,NaN,dog,cat,0.20,0799_nse_dnn_0.20_cat_10_n02124075_12622.png
swin_base,1,800,NaN,dog,bottle,0.20,0800_nse_dnn_0.20_bottle_10_n04560804_9981.png
swin_base,1,801,NaN,elephant,airplane,0.00,0801_nse_dnn_0.00_airplane_10_n02690373_17722.png
swin_base,1,802,NaN,dog,bear,0.05,0802_nse_dnn_0.05_bear_10_n02132136_10412.png
swin_base,1,803,NaN,knife,bear,0.10,0803_nse_dnn_0.10_bear_10_n02133161_431.png
swin_base,1,804,NaN,dog,knife,0.60,0804_nse_dnn_0.60_knife_10_n03041632_2468.png
swin_base,1,805,NaN,bird,bicycle,0.00,0805_nse_dnn_0.00_bicycle_10_n02835271_9297.png
swin_base,1,806,NaN,truck,airplane,0.10,0806_nse_dnn_0.10_airplane_10_n02690373_10285.png
swin_base,1,807,NaN,elephant,car,0.00,0807_nse_dnn_0.00_car_10_n03100240_9639.png
swin_base,1,808,NaN,truck,elephant,0.90,0808_nse_dnn_0.90_elephant_10_n02504458_4139.png
swin_base,1,809,NaN,knife,clock,0.90,0809_nse_dnn_0.90_clock_10_n02708093_6967.png
swin_base,1,810,NaN,dog,elephant,0.03,0810_nse_dnn_0.03_elephant_10_n02504013_2385.png
swin_base,1,811,NaN,knife,airplane,0.90,0811_nse_dnn_0.90_airplane_10_n02690373_5328.png
swin_base,1,812,NaN,bird,boat,0.05,0812_nse_dnn_0.05_boat_10_n03344393_7433.png
swin_base,1,813,NaN,dog,elephant,0.00,0813_nse_dnn_0.00_elephant_10_n02504013_5397.png
swin_base,1,814,NaN,dog,elephant,0.00,0814_nse_dnn_0.00_elephant_10_n02504458_6424.png
swin_base,1,815,NaN,dog,oven,0.60,0815_nse_dnn_0.60_oven_10_n04111531_1752.png
swin_base,1,816,NaN,truck,boat,0.20,0816_nse_dnn_0.20_boat_10_n04273569_22495.png
swin_base,1,817,NaN,knife,bear,0.90,0817_nse_dnn_0.90_bear_10_n02133161_10190.png
swin_base,1,818,NaN,knife,keyboard,0.05,0818_nse_dnn_0.05_keyboard_10_n03085013_24577.png
swin_base,1,819,NaN,bird,bicycle,0.00,0819_nse_dnn_0.00_bicycle_10_n03792782_13608.png
swin_base,1,820,NaN,car,keyboard,0.03,0820_nse_dnn_0.03_keyboard_10_n03085013_24309.png
swin_base,1,821,NaN,truck,chair,0.20,0821_nse_dnn_0.20_chair_10_n03376595_9900.png
swin_base,1,822,NaN,dog,knife,0.05,0822_nse_dnn_0.05_knife_10_n03041632_33225.png
swin_base,1,823,NaN,knife,elephant,0.60,0823_nse_dnn_0.60_elephant_10_n02504013_1132.png
swin_base,1,824,NaN,knife,oven,0.60,0824_nse_dnn_0.60_oven_10_n04111531_13391.png
swin_base,1,825,NaN,oven,chair,0.00,0825_nse_dnn_0.00_chair_10_n04099969_14288.png
swin_base,1,826,NaN,oven,truck,0.03,0826_nse_dnn_0.03_truck_10_n04467665_2098.png
swin_base,1,827,NaN,oven,car,0.00,0827_nse_dnn_0.00_car_10_n03100240_4348.png
swin_base,1,828,NaN,knife,bird,0.00,0828_nse_dnn_0.00_bird_10_n02033041_2320.png
swin_base,1,829,NaN,knife,car,0.10,0829_nse_dnn_0.10_car_10_n04285008_810.png
swin_base,1,830,NaN,knife,boat,0.35,0830_nse_dnn_0.35_boat_10_n02951358_16285.png
swin_base,1,831,NaN,dog,bear,0.05,0831_nse_dnn_0.05_bear_10_n02133161_547.png
swin_base,1,832,NaN,dog,bottle,0.60,0832_nse_dnn_0.60_bottle_10_n04591713_5290.png
swin_base,1,833,NaN,truck,clock,0.03,0833_nse_dnn_0.03_clock_10_n02708093_742.png
swin_base,1,834,NaN,elephant,knife,0.05,0834_nse_dnn_0.05_knife_10_n03041632_11797.png
swin_base,1,835,NaN,elephant,truck,0.00,0835_nse_dnn_0.00_truck_10_n03417042_12588.png
swin_base,1,836,NaN,clock,bird,0.20,0836_nse_dnn_0.20_bird_10_n02011460_13026.png
swin_base,1,837,NaN,dog,bottle,0.35,0837_nse_dnn_0.35_bottle_10_n03983396_10174.png
swin_base,1,838,NaN,knife,bird,0.10,0838_nse_dnn_0.10_bird_10_n02051845_33968.png
swin_base,1,839,NaN,truck,knife,0.60,0839_nse_dnn_0.60_knife_10_n03041632_13645.png
swin_base,1,840,NaN,dog,cat,0.00,0840_nse_dnn_0.00_cat_10_n02123159_5799.png
swin_base,1,841,NaN,dog,elephant,0.60,0841_nse_dnn_0.60_elephant_10_n02504458_12368.png
swin_base,1,842,NaN,elephant,keyboard,0.05,0842_nse_dnn_0.05_keyboard_10_n03085013_19504.png
swin_base,1,843,NaN,truck,knife,0.60,0843_nse_dnn_0.60_knife_10_n03041632_14766.png
swin_base,1,844,NaN,knife,airplane,0.10,0844_nse_dnn_0.10_airplane_10_n02690373_3753.png
swin_base,1,845,NaN,oven,chair,0.00,0845_nse_dnn_0.00_chair_10_n03376595_11352.png
swin_base,1,846,NaN,oven,boat,0.05,0846_nse_dnn_0.05_boat_10_n03344393_2937.png
swin_base,1,847,NaN,bird,bear,0.00,0847_nse_dnn_0.00_bear_10_n02132136_25897.png
swin_base,1,848,NaN,oven,oven,0.05,0848_nse_dnn_0.05_oven_10_n04111531_2630.png
swin_base,1,849,NaN,dog,bear,0.03,0849_nse_dnn_0.03_bear_10_n02132136_50.png
swin_base,1,850,NaN,knife,chair,0.05,0850_nse_dnn_0.05_chair_10_n04099969_2694.png
swin_base,1,851,NaN,knife,clock,0.05,0851_nse_dnn_0.05_clock_10_n03196217_3868.png
swin_base,1,852,NaN,truck,airplane,0.60,0852_nse_dnn_0.60_airplane_10_n02690373_6285.png
swin_base,1,853,NaN,clock,bird,0.35,0853_nse_dnn_0.35_bird_10_n01833805_6289.png
swin_base,1,854,NaN,dog,clock,0.60,0854_nse_dnn_0.60_clock_10_n02708093_1100.png
swin_base,1,855,NaN,knife,truck,0.10,0855_nse_dnn_0.10_truck_10_n03796401_21198.png
swin_base,1,856,NaN,knife,elephant,0.90,0856_nse_dnn_0.90_elephant_10_n02504013_1255.png
swin_base,1,857,NaN,truck,bicycle,0.20,0857_nse_dnn_0.20_bicycle_10_n03792782_11417.png
swin_base,1,858,NaN,elephant,boat,0.00,0858_nse_dnn_0.00_boat_10_n04612504_7446.png
swin_base,1,859,NaN,knife,bicycle,0.90,0859_nse_dnn_0.90_bicycle_10_n03792782_30942.png
swin_base,1,860,NaN,knife,bear,0.90,0860_nse_dnn_0.90_bear_10_n02132136_4636.png
swin_base,1,861,NaN,dog,airplane,0.00,0861_nse_dnn_0.00_airplane_10_n02690373_563.png
swin_base,1,862,NaN,knife,oven,0.10,0862_nse_dnn_0.10_oven_10_n04111531_7600.png
swin_base,1,863,NaN,knife,keyboard,0.05,0863_nse_dnn_0.05_keyboard_10_n04505470_1043.png
swin_base,1,864,NaN,dog,cat,0.03,0864_nse_dnn_0.03_cat_10_n02123394_6828.png
swin_base,1,865,NaN,knife,airplane,0.60,0865_nse_dnn_0.60_airplane_10_n02690373_9001.png
swin_base,1,866,NaN,knife,knife,0.90,0866_nse_dnn_0.90_knife_10_n03041632_7116.png
swin_base,1,867,NaN,oven,car,0.03,0867_nse_dnn_0.03_car_10_n03100240_15979.png
swin_base,1,868,NaN,dog,bear,0.20,0868_nse_dnn_0.20_bear_10_n02134418_289.png
swin_base,1,869,NaN,bottle,airplane,0.05,0869_nse_dnn_0.05_airplane_10_n02690373_9535.png
swin_base,1,870,NaN,oven,oven,0.05,0870_nse_dnn_0.05_oven_10_n04111531_22872.png
swin_base,1,871,NaN,truck,chair,0.00,0871_nse_dnn_0.00_chair_10_n03376595_6012.png
swin_base,1,872,NaN,elephant,chair,0.05,0872_nse_dnn_0.05_chair_10_n02791124_4595.png
swin_base,1,873,NaN,truck,knife,0.00,0873_nse_dnn_0.00_knife_10_n03041632_45636.png
swin_base,1,874,NaN,dog,oven,0.20,0874_nse_dnn_0.20_oven_10_n04111531_8144.png
swin_base,1,875,NaN,knife,chair,0.20,0875_nse_dnn_0.20_chair_10_n04429376_19459.png
swin_base,1,876,NaN,knife,bear,0.10,0876_nse_dnn_0.10_bear_10_n02134084_11993.png
swin_base,1,877,NaN,truck,bicycle,0.35,0877_nse_dnn_0.35_bicycle_10_n02835271_845.png
swin_base,1,878,NaN,truck,knife,0.60,0878_nse_dnn_0.60_knife_10_n03041632_16826.png
swin_base,1,879,NaN,dog,bottle,0.20,0879_nse_dnn_0.20_bottle_10_n04557648_2075.png
swin_base,1,880,NaN,truck,cat,0.60,0880_nse_dnn_0.60_cat_10_n02123159_6596.png
swin_base,1,881,NaN,knife,cat,0.05,0881_nse_dnn_0.05_cat_10_n02124075_8799.png
swin_base,1,882,NaN,elephant,dog,0.00,0882_nse_dnn_0.00_dog_10_n02107683_6800.png
swin_base,1,883,NaN,oven,keyboard,0.03,0883_nse_dnn_0.03_keyboard_10_n04505470_4983.png
swin_base,1,884,NaN,dog,cat,0.05,0884_nse_dnn_0.05_cat_10_n02123045_5381.png
swin_base,1,885,NaN,knife,keyboard,0.10,0885_nse_dnn_0.10_keyboard_10_n03085013_2073.png
swin_base,1,886,NaN,knife,keyboard,0.35,0886_nse_dnn_0.35_keyboard_10_n04505470_2141.png
swin_base,1,887,NaN,truck,elephant,0.90,0887_nse_dnn_0.90_elephant_10_n02504013_1125.png
swin_base,1,888,NaN,knife,elephant,0.60,0888_nse_dnn_0.60_elephant_10_n02504458_4824.png
swin_base,1,889,NaN,car,bird,0.00,0889_nse_dnn_0.00_bird_10_n01560419_2432.png
swin_base,1,890,NaN,knife,truck,0.03,0890_nse_dnn_0.03_truck_10_n03417042_12874.png
swin_base,1,891,NaN,truck,knife,0.35,0891_nse_dnn_0.35_knife_10_n03041632_36390.png
swin_base,1,892,NaN,knife,clock,0.03,0892_nse_dnn_0.03_clock_10_n04548280_9752.png
swin_base,1,893,NaN,dog,knife,0.05,0893_nse_dnn_0.05_knife_10_n03041632_19098.png
swin_base,1,894,NaN,knife,keyboard,0.35,0894_nse_dnn_0.35_keyboard_10_n03085013_20784.png
swin_base,1,895,NaN,car,boat,0.05,0895_nse_dnn_0.05_boat_10_n04612504_15898.png
swin_base,1,896,NaN,dog,cat,0.35,0896_nse_dnn_0.35_cat_10_n02123159_3083.png
swin_base,1,897,NaN,oven,boat,0.03,0897_nse_dnn_0.03_boat_10_n02951358_512.png
swin_base,1,898,NaN,oven,bird,0.03,0898_nse_dnn_0.03_bird_10_n01843065_654.png
swin_base,1,899,NaN,dog,airplane,0.20,0899_nse_dnn_0.20_airplane_10_n02690373_4136.png
swin_base,1,900,NaN,knife,airplane,0.35,0900_nse_dnn_0.35_airplane_10_n02690373_3212.png
swin_base,1,901,NaN,knife,bottle,0.90,0901_nse_dnn_0.90_bottle_10_n04560804_7375.png
swin_base,1,902,NaN,truck,bottle,0.35,0902_nse_dnn_0.35_bottle_10_n04591713_6138.png
swin_base,1,903,NaN,dog,bear,0.03,0903_nse_dnn_0.03_bear_10_n02134084_16632.png
swin_base,1,904,NaN,knife,oven,0.10,0904_nse_dnn_0.10_oven_10_n04111531_12129.png
swin_base,1,905,NaN,truck,bottle,0.90,0905_nse_dnn_0.90_bottle_10_n04579145_3830.png
swin_base,1,906,NaN,knife,bird,0.90,0906_nse_dnn_0.90_bird_10_n01530575_310.png
swin_base,1,907,NaN,dog,elephant,0.05,0907_nse_dnn_0.05_elephant_10_n02504458_2965.png
swin_base,1,908,NaN,truck,chair,0.60,0908_nse_dnn_0.60_chair_10_n02791124_5089.png
swin_base,1,909,NaN,knife,car,0.05,0909_nse_dnn_0.05_car_10_n03100240_9000.png
swin_base,1,910,NaN,knife,bear,0.90,0910_nse_dnn_0.90_bear_10_n02134418_4893.png
swin_base,1,911,NaN,dog,cat,0.00,0911_nse_dnn_0.00_cat_10_n02124075_4116.png
swin_base,1,912,NaN,oven,bottle,0.03,0912_nse_dnn_0.03_bottle_10_n04560804_13279.png
swin_base,1,913,NaN,dog,bicycle,0.20,0913_nse_dnn_0.20_bicycle_10_n03792782_31101.png
swin_base,1,914,NaN,knife,clock,0.10,0914_nse_dnn_0.10_clock_10_n03196217_5441.png
swin_base,1,915,NaN,dog,clock,0.10,0915_nse_dnn_0.10_clock_10_n04548280_4738.png
swin_base,1,916,NaN,knife,bicycle,0.10,0916_nse_dnn_0.10_bicycle_10_n03792782_11921.png
swin_base,1,917,NaN,bird,bicycle,0.05,0917_nse_dnn_0.05_bicycle_10_n02835271_1530.png
swin_base,1,918,NaN,dog,airplane,0.00,0918_nse_dnn_0.00_airplane_10_n02690373_6031.png
swin_base,1,919,NaN,clock,bird,0.20,0919_nse_dnn_0.20_bird_10_n02033041_17119.png
swin_base,1,920,NaN,truck,oven,0.60,0920_nse_dnn_0.60_oven_10_n04111531_9915.png
swin_base,1,921,NaN,bird,bicycle,0.00,0921_nse_dnn_0.00_bicycle_10_n02835271_8617.png
swin_base,1,922,NaN,truck,keyboard,0.60,0922_nse_dnn_0.60_keyboard_10_n03085013_23718.png
swin_base,1,923,NaN,dog,bottle,0.10,0923_nse_dnn_0.10_bottle_10_n03937543_1290.png
swin_base,1,924,NaN,knife,cat,0.60,0924_nse_dnn_0.60_cat_10_n02125311_22037.png
swin_base,1,925,NaN,dog,chair,0.35,0925_nse_dnn_0.35_chair_10_n03376595_7515.png
swin_base,1,926,NaN,truck,chair,0.60,0926_nse_dnn_0.60_chair_10_n03376595_8995.png
swin_base,1,927,NaN,knife,boat,0.05,0927_nse_dnn_0.05_boat_10_n03662601_19809.png
swin_base,1,928,NaN,bird,bicycle,0.20,0928_nse_dnn_0.20_bicycle_10_n03792782_50446.png
swin_base,1,929,NaN,truck,airplane,0.60,0929_nse_dnn_0.60_airplane_10_n02690373_7115.png
swin_base,1,930,NaN,boat,bear,0.00,0930_nse_dnn_0.00_bear_10_n02134084_12389.png
swin_base,1,931,NaN,knife,dog,0.90,0931_nse_dnn_0.90_dog_10_n02105162_10475.png
swin_base,1,932,NaN,clock,oven,0.03,0932_nse_dnn_0.03_oven_10_n04111531_11669.png
swin_base,1,933,NaN,truck,dog,0.60,0933_nse_dnn_0.60_dog_10_n02113023_6945.png
swin_base,1,934,NaN,knife,bear,0.90,0934_nse_dnn_0.90_bear_10_n02133161_16103.png
swin_base,1,935,NaN,dog,elephant,0.10,0935_nse_dnn_0.10_elephant_10_n02504013_7553.png
swin_base,1,936,NaN,knife,bear,0.60,0936_nse_dnn_0.60_bear_10_n02133161_830.png
swin_base,1,937,NaN,truck,knife,0.60,0937_nse_dnn_0.60_knife_10_n03041632_37618.png
swin_base,1,938,NaN,dog,knife,0.20,0938_nse_dnn_0.20_knife_10_n03041632_46103.png
swin_base,1,939,NaN,car,clock,0.03,0939_nse_dnn_0.03_clock_10_n02708093_3213.png
swin_base,1,940,NaN,dog,truck,0.35,0940_nse_dnn_0.35_truck_10_n03417042_10751.png
swin_base,1,941,NaN,truck,bottle,0.60,0941_nse_dnn_0.60_bottle_10_n04591713_765.png
swin_base,1,942,NaN,oven,oven,0.03,0942_nse_dnn_0.03_oven_10_n04111531_9474.png
swin_base,1,943,NaN,knife,truck,0.60,0943_nse_dnn_0.60_truck_10_n04467665_33099.png
swin_base,1,944,NaN,oven,clock,0.03,0944_nse_dnn_0.03_clock_10_n04548280_4872.png
swin_base,1,945,NaN,knife,car,0.35,0945_nse_dnn_0.35_car_10_n02814533_16978.png
swin_base,1,946,NaN,knife,keyboard,0.90,0946_nse_dnn_0.90_keyboard_10_n03085013_20152.png
swin_base,1,947,NaN,knife,car,0.20,0947_nse_dnn_0.20_car_10_n04285008_5788.png
swin_base,1,948,NaN,knife,knife,0.90,0948_nse_dnn_0.90_knife_10_n03041632_41493.png
swin_base,1,949,NaN,elephant,airplane,0.05,0949_nse_dnn_0.05_airplane_10_n02690373_1751.png
swin_base,1,950,NaN,knife,keyboard,0.05,0950_nse_dnn_0.05_keyboard_10_n03085013_23865.png
swin_base,1,951,NaN,dog,cat,0.05,0951_nse_dnn_0.05_cat_10_n02123045_10433.png
swin_base,1,952,NaN,knife,chair,0.10,0952_nse_dnn_0.10_chair_10_n02791124_7335.png
swin_base,1,953,NaN,knife,bicycle,0.03,0953_nse_dnn_0.03_bicycle_10_n02835271_3135.png
swin_base,1,954,NaN,dog,car,0.20,0954_nse_dnn_0.20_car_10_n02814533_7028.png
swin_base,1,955,NaN,bottle,oven,0.05,0955_nse_dnn_0.05_oven_10_n04111531_9314.png
swin_base,1,956,NaN,knife,knife,0.10,0956_nse_dnn_0.10_knife_10_n03041632_43289.png
swin_base,1,957,NaN,knife,truck,0.20,0957_nse_dnn_0.20_truck_10_n03796401_3191.png
swin_base,1,958,NaN,elephant,car,0.05,0958_nse_dnn_0.05_car_10_n03100240_9305.png
swin_base,1,959,NaN,truck,bicycle,0.60,0959_nse_dnn_0.60_bicycle_10_n02835271_12799.png
swin_base,1,960,NaN,knife,bottle,0.10,0960_nse_dnn_0.10_bottle_10_n04591713_1978.png
swin_base,1,961,NaN,knife,truck,0.10,0961_nse_dnn_0.10_truck_10_n04467665_68821.png
swin_base,1,962,NaN,bird,bear,0.35,0962_nse_dnn_0.35_bear_10_n02133161_1205.png
swin_base,1,963,NaN,dog,elephant,0.03,0963_nse_dnn_0.03_elephant_10_n02504458_7822.png
swin_base,1,964,NaN,knife,bird,0.05,0964_nse_dnn_0.05_bird_10_n02027492_9899.png
swin_base,1,965,NaN,bird,boat,0.05,0965_nse_dnn_0.05_boat_10_n02951358_34116.png
swin_base,1,966,NaN,dog,keyboard,0.20,0966_nse_dnn_0.20_keyboard_10_n03085013_7605.png
swin_base,1,967,NaN,truck,truck,0.60,0967_nse_dnn_0.60_truck_10_n03796401_7694.png
swin_base,1,968,NaN,knife,boat,0.90,0968_nse_dnn_0.90_boat_10_n03662601_3913.png
swin_base,1,969,NaN,dog,knife,0.00,0969_nse_dnn_0.00_knife_10_n03041632_52929.png
swin_base,1,970,NaN,knife,bicycle,0.10,0970_nse_dnn_0.10_bicycle_10_n02835271_3619.png
swin_base,1,971,NaN,knife,truck,0.90,0971_nse_dnn_0.90_truck_10_n03796401_1446.png
swin_base,1,972,NaN,bird,boat,0.20,0972_nse_dnn_0.20_boat_10_n03662601_5529.png
swin_base,1,973,NaN,knife,keyboard,0.35,0973_nse_dnn_0.35_keyboard_10_n04505470_3425.png
swin_base,1,974,NaN,bird,airplane,0.00,0974_nse_dnn_0.00_airplane_10_n02690373_5967.png
swin_base,1,975,NaN,elephant,dog,0.05,0975_nse_dnn_0.05_dog_10_n02096051_1308.png
swin_base,1,976,NaN,knife,boat,0.10,0976_nse_dnn_0.10_boat_10_n04612504_6308.png
swin_base,1,977,NaN,dog,bear,0.35,0977_nse_dnn_0.35_bear_10_n02133161_5927.png
swin_base,1,978,NaN,dog,dog,0.35,0978_nse_dnn_0.35_dog_10_n02110958_6868.png
swin_base,1,979,NaN,knife,elephant,0.60,0979_nse_dnn_0.60_elephant_10_n02504013_1110.png
swin_base,1,980,NaN,dog,truck,0.20,0980_nse_dnn_0.20_truck_10_n03417042_4994.png
swin_base,1,981,NaN,knife,keyboard,0.60,0981_nse_dnn_0.60_keyboard_10_n03085013_25066.png
swin_base,1,982,NaN,knife,airplane,0.90,0982_nse_dnn_0.90_airplane_10_n02690373_1862.png
swin_base,1,983,NaN,knife,knife,0.10,0983_nse_dnn_0.10_knife_10_n03041632_11887.png
swin_base,1,984,NaN,dog,elephant,0.20,0984_nse_dnn_0.20_elephant_10_n02504013_3939.png
swin_base,1,985,NaN,knife,keyboard,0.35,0985_nse_dnn_0.35_keyboard_10_n04505470_4565.png
swin_base,1,986,NaN,knife,keyboard,0.03,0986_nse_dnn_0.03_keyboard_10_n04505470_1651.png
swin_base,1,987,NaN,knife,truck,0.60,0987_nse_dnn_0.60_truck_10_n03417042_8145.png
swin_base,1,988,NaN,knife,chair,0.05,0988_nse_dnn_0.05_chair_10_n02791124_2470.png
swin_base,1,989,NaN,car,knife,0.03,0989_nse_dnn_0.03_knife_10_n03041632_94202.png
swin_base,1,990,NaN,truck,keyboard,0.20,0990_nse_dnn_0.20_keyboard_10_n03085013_22597.png
swin_base,1,991,NaN,oven,chair,0.03,0991_nse_dnn_0.03_chair_10_n02791124_7483.png
swin_base,1,992,NaN,car,airplane,0.03,0992_nse_dnn_0.03_airplane_10_n02690373_1038.png
swin_base,1,993,NaN,truck,oven,0.20,0993_nse_dnn_0.20_oven_10_n04111531_6024.png
swin_base,1,994,NaN,dog,bear,0.35,0994_nse_dnn_0.35_bear_10_n02134418_2502.png
swin_base,1,995,NaN,knife,truck,0.35,0995_nse_dnn_0.35_truck_10_n03417042_8928.png
swin_base,1,996,NaN,oven,keyboard,0.00,0996_nse_dnn_0.00_keyboard_10_n04505470_4682.png
swin_base,1,997,NaN,knife,airplane,0.90,0997_nse_dnn_0.90_airplane_10_n02690373_427.png
swin_base,1,998,NaN,bicycle,bear,0.05,0998_nse_dnn_0.05_bear_10_n02134084_473.png
swin_base,1,999,NaN,elephant,chair,0.00,0999_nse_dnn_0.00_chair_10_n04099969_6395.png
swin_base,1,1000,NaN,car,truck,0.05,1000_nse_dnn_0.05_truck_10_n03796401_30000.png
swin_base,1,1001,NaN,dog,keyboard,0.35,1001_nse_dnn_0.35_keyboard_10_n04505470_8620.png
swin_base,1,1002,NaN,knife,dog,0.90,1002_nse_dnn_0.90_dog_10_n02110806_5609.png
swin_base,1,1003,NaN,truck,clock,0.20,1003_nse_dnn_0.20_clock_10_n03196217_445.png
swin_base,1,1004,NaN,knife,dog,0.60,1004_nse_dnn_0.60_dog_10_n02093428_6133.png
swin_base,1,1005,NaN,truck,cat,0.60,1005_nse_dnn_0.60_cat_10_n02124075_9939.png
swin_base,1,1006,NaN,truck,chair,0.90,1006_nse_dnn_0.90_chair_10_n02791124_15383.png
swin_base,1,1007,NaN,knife,cat,0.20,1007_nse_dnn_0.20_cat_10_n02123597_1750.png
swin_base,1,1008,NaN,truck,car,0.60,1008_nse_dnn_0.60_car_10_n03100240_9875.png
swin_base,1,1009,NaN,oven,keyboard,0.00,1009_nse_dnn_0.00_keyboard_10_n04505470_1052.png
swin_base,1,1010,NaN,knife,boat,0.10,1010_nse_dnn_0.10_boat_10_n04273569_1012.png
swin_base,1,1011,NaN,car,boat,0.03,1011_nse_dnn_0.03_boat_10_n03344393_7109.png
swin_base,1,1012,NaN,dog,bear,0.35,1012_nse_dnn_0.35_bear_10_n02134418_2432.png
swin_base,1,1013,NaN,dog,clock,0.35,1013_nse_dnn_0.35_clock_10_n02708093_4912.png
swin_base,1,1014,NaN,dog,car,0.20,1014_nse_dnn_0.20_car_10_n04285008_13629.png
swin_base,1,1015,NaN,dog,bicycle,0.00,1015_nse_dnn_0.00_bicycle_10_n02835271_5056.png
swin_base,1,1016,NaN,knife,oven,0.10,1016_nse_dnn_0.10_oven_10_n04111531_16198.png
swin_base,1,1017,NaN,dog,knife,0.20,1017_nse_dnn_0.20_knife_10_n03041632_29355.png
swin_base,1,1018,NaN,oven,clock,0.03,1018_nse_dnn_0.03_clock_10_n04548280_6068.png
swin_base,1,1019,NaN,dog,cat,0.03,1019_nse_dnn_0.03_cat_10_n02123394_9542.png
swin_base,1,1020,NaN,oven,car,0.00,1020_nse_dnn_0.00_car_10_n02814533_72473.png
swin_base,1,1021,NaN,knife,keyboard,0.90,1021_nse_dnn_0.90_keyboard_10_n04505470_1479.png
swin_base,1,1022,NaN,chair,keyboard,0.03,1022_nse_dnn_0.03_keyboard_10_n04505470_4554.png
swin_base,1,1023,NaN,dog,bottle,0.60,1023_nse_dnn_0.60_bottle_10_n02823428_3929.png
swin_base,1,1024,NaN,truck,clock,0.00,1024_nse_dnn_0.00_clock_10_n03196217_6064.png
swin_base,1,1025,NaN,truck,airplane,0.35,1025_nse_dnn_0.35_airplane_10_n02690373_5032.png
swin_base,1,1026,NaN,dog,clock,0.10,1026_nse_dnn_0.10_clock_10_n04548280_9426.png
swin_base,1,1027,NaN,truck,bicycle,0.90,1027_nse_dnn_0.90_bicycle_10_n02835271_30318.png
swin_base,1,1028,NaN,oven,clock,0.00,1028_nse_dnn_0.00_clock_10_n04548280_4181.png
swin_base,1,1029,NaN,dog,bear,0.03,1029_nse_dnn_0.03_bear_10_n02132136_6967.png
swin_base,1,1030,NaN,dog,bird,0.35,1030_nse_dnn_0.35_bird_10_n02025239_18436.png
swin_base,1,1031,NaN,knife,elephant,0.10,1031_nse_dnn_0.10_elephant_10_n02504013_7774.png
swin_base,1,1032,NaN,knife,car,0.90,1032_nse_dnn_0.90_car_10_n04285008_550.png
swin_base,1,1033,NaN,oven,keyboard,0.03,1033_nse_dnn_0.03_keyboard_10_n04505470_6051.png
swin_base,1,1034,NaN,dog,knife,0.35,1034_nse_dnn_0.35_knife_10_n03041632_51581.png
swin_base,1,1035,NaN,bird,bear,0.05,1035_nse_dnn_0.05_bear_10_n02134084_15016.png
swin_base,1,1036,NaN,bird,clock,0.05,1036_nse_dnn_0.05_clock_10_n03196217_5972.png
swin_base,1,1037,NaN,knife,cat,0.60,1037_nse_dnn_0.60_cat_10_n02123597_5514.png
swin_base,1,1038,NaN,knife,cat,0.05,1038_nse_dnn_0.05_cat_10_n02123394_7223.png
swin_base,1,1039,NaN,dog,oven,0.20,1039_nse_dnn_0.20_oven_10_n04111531_1330.png
swin_base,1,1040,NaN,elephant,knife,0.05,1040_nse_dnn_0.05_knife_10_n03041632_52702.png
swin_base,1,1041,NaN,dog,dog,0.03,1041_nse_dnn_0.03_dog_10_n02112350_1654.png
swin_base,1,1042,NaN,knife,truck,0.90,1042_nse_dnn_0.90_truck_10_n04467665_37009.png
swin_base,1,1043,NaN,knife,boat,0.60,1043_nse_dnn_0.60_boat_10_n03662601_6625.png
swin_base,1,1044,NaN,dog,cat,0.03,1044_nse_dnn_0.03_cat_10_n02123159_7270.png
swin_base,1,1045,NaN,truck,keyboard,0.90,1045_nse_dnn_0.90_keyboard_10_n03085013_18769.png
swin_base,1,1046,NaN,knife,car,0.35,1046_nse_dnn_0.35_car_10_n02814533_73210.png
swin_base,1,1047,NaN,keyboard,bottle,0.03,1047_nse_dnn_0.03_bottle_10_n04591713_5518.png
swin_base,1,1048,NaN,dog,knife,0.20,1048_nse_dnn_0.20_knife_10_n03041632_23087.png
swin_base,1,1049,NaN,boat,airplane,0.05,1049_nse_dnn_0.05_airplane_10_n02690373_7072.png
swin_base,1,1050,NaN,dog,bear,0.60,1050_nse_dnn_0.60_bear_10_n02134084_8095.png
swin_base,1,1051,NaN,dog,truck,0.20,1051_nse_dnn_0.20_truck_10_n03417042_17916.png
swin_base,1,1052,NaN,bird,car,0.03,1052_nse_dnn_0.03_car_10_n03100240_2425.png
swin_base,1,1053,NaN,knife,car,0.35,1053_nse_dnn_0.35_car_10_n02814533_8881.png
swin_base,1,1054,NaN,car,bird,0.05,1054_nse_dnn_0.05_bird_10_n01534433_4594.png
swin_base,1,1055,NaN,truck,cat,0.60,1055_nse_dnn_0.60_cat_10_n02123159_6162.png
swin_base,1,1056,NaN,knife,bottle,0.05,1056_nse_dnn_0.05_bottle_10_n04591713_7010.png
swin_base,1,1057,NaN,dog,elephant,0.03,1057_nse_dnn_0.03_elephant_10_n02504458_10554.png
swin_base,1,1058,NaN,knife,car,0.60,1058_nse_dnn_0.60_car_10_n02814533_27588.png
swin_base,1,1059,NaN,oven,dog,0.03,1059_nse_dnn_0.03_dog_10_n02102480_6569.png
swin_base,1,1060,NaN,truck,oven,0.03,1060_nse_dnn_0.03_oven_10_n04111531_21911.png
swin_base,1,1061,NaN,boat,chair,0.05,1061_nse_dnn_0.05_chair_10_n04429376_30921.png
swin_base,1,1062,NaN,dog,knife,0.20,1062_nse_dnn_0.20_knife_10_n03041632_24541.png
swin_base,1,1063,NaN,truck,knife,0.35,1063_nse_dnn_0.35_knife_10_n03041632_40508.png
swin_base,1,1064,NaN,clock,bird,0.03,1064_nse_dnn_0.03_bird_10_n02018207_4180.png
swin_base,1,1065,NaN,dog,truck,0.20,1065_nse_dnn_0.20_truck_10_n03796401_21490.png
swin_base,1,1066,NaN,knife,keyboard,0.35,1066_nse_dnn_0.35_keyboard_10_n03085013_19607.png
swin_base,1,1067,NaN,oven,keyboard,0.03,1067_nse_dnn_0.03_keyboard_10_n04505470_9866.png
swin_base,1,1068,NaN,elephant,airplane,0.03,1068_nse_dnn_0.03_airplane_10_n02690373_1306.png
swin_base,1,1069,NaN,truck,knife,0.90,1069_nse_dnn_0.90_knife_10_n03041632_38535.png
swin_base,1,1070,NaN,dog,dog,0.00,1070_nse_dnn_0.00_dog_10_n02107574_835.png
swin_base,1,1071,NaN,truck,bear,0.90,1071_nse_dnn_0.90_bear_10_n02133161_4398.png
swin_base,1,1072,NaN,elephant,oven,0.00,1072_nse_dnn_0.00_oven_10_n04111531_10358.png
swin_base,1,1073,NaN,truck,bird,0.10,1073_nse_dnn_0.10_bird_10_n01843383_386.png
swin_base,1,1074,NaN,elephant,oven,0.00,1074_nse_dnn_0.00_oven_10_n04111531_10375.png
swin_base,1,1075,NaN,truck,bird,0.60,1075_nse_dnn_0.60_bird_10_n01817953_12877.png
swin_base,1,1076,NaN,truck,bottle,0.20,1076_nse_dnn_0.20_bottle_10_n02823428_4165.png
swin_base,1,1077,NaN,knife,boat,0.10,1077_nse_dnn_0.10_boat_10_n03662601_3471.png
swin_base,1,1078,NaN,knife,cat,0.05,1078_nse_dnn_0.05_cat_10_n02125311_6393.png
swin_base,1,1079,NaN,dog,bicycle,0.20,1079_nse_dnn_0.20_bicycle_10_n02835271_12120.png
swin_base,1,1080,NaN,knife,boat,0.60,1080_nse_dnn_0.60_boat_10_n03662601_5995.png
swin_base,1,1081,NaN,dog,bear,0.35,1081_nse_dnn_0.35_bear_10_n02133161_14833.png
swin_base,1,1082,NaN,bird,bicycle,0.05,1082_nse_dnn_0.05_bicycle_10_n03792782_13923.png
swin_base,1,1083,NaN,truck,boat,0.35,1083_nse_dnn_0.35_boat_10_n04273569_4418.png
swin_base,1,1084,NaN,knife,oven,0.10,1084_nse_dnn_0.10_oven_10_n04111531_7965.png
swin_base,1,1085,NaN,elephant,airplane,0.03,1085_nse_dnn_0.03_airplane_10_n02690373_5845.png
swin_base,1,1086,NaN,dog,elephant,0.20,1086_nse_dnn_0.20_elephant_10_n02504458_309.png
swin_base,1,1087,NaN,elephant,truck,0.00,1087_nse_dnn_0.00_truck_10_n04467665_39477.png
swin_base,1,1088,NaN,truck,bear,0.60,1088_nse_dnn_0.60_bear_10_n02132136_11183.png
swin_base,1,1089,NaN,truck,airplane,0.35,1089_nse_dnn_0.35_airplane_10_n02690373_10079.png
swin_base,1,1090,NaN,knife,bicycle,0.90,1090_nse_dnn_0.90_bicycle_10_n03792782_18516.png
swin_base,1,1091,NaN,truck,airplane,0.60,1091_nse_dnn_0.60_airplane_10_n02690373_5729.png
swin_base,1,1092,NaN,knife,bottle,0.90,1092_nse_dnn_0.90_bottle_10_n04591713_5279.png
swin_base,1,1093,NaN,truck,boat,0.90,1093_nse_dnn_0.90_boat_10_n04273569_18898.png
swin_base,1,1094,NaN,knife,keyboard,0.10,1094_nse_dnn_0.10_keyboard_10_n04505470_4951.png
swin_base,1,1095,NaN,knife,dog,0.35,1095_nse_dnn_0.35_dog_10_n02107312_5759.png
swin_base,1,1096,NaN,knife,car,0.10,1096_nse_dnn_0.10_car_10_n03100240_17874.png
swin_base,1,1097,NaN,knife,airplane,0.35,1097_nse_dnn_0.35_airplane_10_n02690373_7591.png
swin_base,1,1098,NaN,truck,car,0.60,1098_nse_dnn_0.60_car_10_n02814533_8232.png
swin_base,1,1099,NaN,bottle,airplane,0.05,1099_nse_dnn_0.05_airplane_10_n02690373_466.png
swin_base,1,1100,NaN,knife,chair,0.10,1100_nse_dnn_0.10_chair_10_n04429376_5742.png
swin_base,1,1101,NaN,truck,bear,0.60,1101_nse_dnn_0.60_bear_10_n02134084_33483.png
swin_base,1,1102,NaN,truck,chair,0.35,1102_nse_dnn_0.35_chair_10_n04429376_48722.png
swin_base,1,1103,NaN,knife,cat,0.10,1103_nse_dnn_0.10_cat_10_n02123394_1789.png
swin_base,1,1104,NaN,oven,truck,0.05,1104_nse_dnn_0.05_truck_10_n04467665_62524.png
swin_base,1,1105,NaN,truck,truck,0.35,1105_nse_dnn_0.35_truck_10_n04467665_20923.png
swin_base,1,1106,NaN,dog,elephant,0.05,1106_nse_dnn_0.05_elephant_10_n02504013_5918.png
swin_base,1,1107,NaN,truck,bird,0.10,1107_nse_dnn_0.10_bird_10_n02018795_14312.png
swin_base,1,1108,NaN,bird,chair,0.20,1108_nse_dnn_0.20_chair_10_n02791124_1140.png
swin_base,1,1109,NaN,dog,oven,0.10,1109_nse_dnn_0.10_oven_10_n04111531_5828.png
swin_base,1,1110,NaN,truck,oven,0.90,1110_nse_dnn_0.90_oven_10_n04111531_22466.png
swin_base,1,1111,NaN,car,bottle,0.03,1111_nse_dnn_0.03_bottle_10_n04591713_2841.png
swin_base,1,1112,NaN,dog,clock,0.35,1112_nse_dnn_0.35_clock_10_n04548280_6888.png
swin_base,1,1113,NaN,bird,clock,0.03,1113_nse_dnn_0.03_clock_10_n03196217_3007.png
swin_base,1,1114,NaN,chair,chair,0.03,1114_nse_dnn_0.03_chair_10_n04099969_37437.png
swin_base,1,1115,NaN,knife,keyboard,0.90,1115_nse_dnn_0.90_keyboard_10_n04505470_4917.png
swin_base,1,1116,NaN,bird,dog,0.05,1116_nse_dnn_0.05_dog_10_n02093647_286.png
swin_base,1,1117,NaN,elephant,airplane,0.05,1117_nse_dnn_0.05_airplane_10_n02690373_777.png
swin_base,1,1118,NaN,dog,cat,0.05,1118_nse_dnn_0.05_cat_10_n02125311_13652.png
swin_base,1,1119,NaN,car,bottle,0.05,1119_nse_dnn_0.05_bottle_10_n04557648_9277.png
swin_base,1,1120,NaN,oven,keyboard,0.03,1120_nse_dnn_0.03_keyboard_10_n03085013_20877.png
swin_base,1,1121,NaN,knife,car,0.20,1121_nse_dnn_0.20_car_10_n03100240_4294.png
swin_base,1,1122,NaN,knife,clock,0.60,1122_nse_dnn_0.60_clock_10_n03196217_3362.png
swin_base,1,1123,NaN,knife,airplane,0.10,1123_nse_dnn_0.10_airplane_10_n02690373_4213.png
swin_base,1,1124,NaN,dog,bear,0.35,1124_nse_dnn_0.35_bear_10_n02133161_19418.png
swin_base,1,1125,NaN,dog,bottle,0.20,1125_nse_dnn_0.20_bottle_10_n03937543_2105.png
swin_base,1,1126,NaN,dog,oven,0.10,1126_nse_dnn_0.10_oven_10_n04111531_9831.png
swin_base,1,1127,NaN,knife,keyboard,0.90,1127_nse_dnn_0.90_keyboard_10_n03085013_20727.png
swin_base,1,1128,NaN,dog,bicycle,0.20,1128_nse_dnn_0.20_bicycle_10_n02835271_9669.png
swin_base,1,1129,NaN,truck,oven,0.90,1129_nse_dnn_0.90_oven_10_n04111531_845.png
swin_base,1,1130,NaN,truck,airplane,0.35,1130_nse_dnn_0.35_airplane_10_n02690373_2313.png
swin_base,1,1131,NaN,knife,dog,0.60,1131_nse_dnn_0.60_dog_10_n02107683_3902.png
swin_base,1,1132,NaN,boat,airplane,0.05,1132_nse_dnn_0.05_airplane_10_n02690373_1161.png
swin_base,1,1133,NaN,dog,bottle,0.05,1133_nse_dnn_0.05_bottle_10_n03983396_23516.png
swin_base,1,1134,NaN,dog,chair,0.20,1134_nse_dnn_0.20_chair_10_n02791124_15754.png
swin_base,1,1135,NaN,dog,bottle,0.20,1135_nse_dnn_0.20_bottle_10_n02823428_7570.png
swin_base,1,1136,NaN,dog,elephant,0.20,1136_nse_dnn_0.20_elephant_10_n02504013_23628.png
swin_base,1,1137,NaN,bird,oven,0.05,1137_nse_dnn_0.05_oven_10_n04111531_8852.png
swin_base,1,1138,NaN,dog,boat,0.20,1138_nse_dnn_0.20_boat_10_n03662601_35225.png
swin_base,1,1139,NaN,truck,truck,0.60,1139_nse_dnn_0.60_truck_10_n04467665_1840.png
swin_base,1,1140,NaN,dog,car,0.20,1140_nse_dnn_0.20_car_10_n03100240_15070.png
swin_base,1,1141,NaN,knife,bottle,0.10,1141_nse_dnn_0.10_bottle_10_n03983396_4780.png
swin_base,1,1142,NaN,knife,bicycle,0.90,1142_nse_dnn_0.90_bicycle_10_n03792782_16558.png
swin_base,1,1143,NaN,knife,knife,0.60,1143_nse_dnn_0.60_knife_10_n03041632_87380.png
swin_base,1,1144,NaN,dog,clock,0.20,1144_nse_dnn_0.20_clock_10_n02708093_6795.png
swin_base,1,1145,NaN,dog,dog,0.35,1145_nse_dnn_0.35_dog_10_n02107142_55162.png
swin_base,1,1146,NaN,elephant,truck,0.00,1146_nse_dnn_0.00_truck_10_n03417042_5105.png
swin_base,1,1147,NaN,knife,chair,0.60,1147_nse_dnn_0.60_chair_10_n02791124_1635.png
swin_base,1,1148,NaN,dog,bottle,0.20,1148_nse_dnn_0.20_bottle_10_n02823428_13937.png
swin_base,1,1149,NaN,dog,bear,0.20,1149_nse_dnn_0.20_bear_10_n02134418_4666.png
swin_base,1,1150,NaN,dog,dog,0.20,1150_nse_dnn_0.20_dog_10_n02096437_4384.png
swin_base,1,1151,NaN,dog,bear,0.03,1151_nse_dnn_0.03_bear_10_n02132136_6459.png
swin_base,1,1152,NaN,oven,car,0.03,1152_nse_dnn_0.03_car_10_n02814533_31532.png
swin_base,1,1153,NaN,knife,bird,0.90,1153_nse_dnn_0.90_bird_10_n01828970_11546.png
swin_base,1,1154,NaN,dog,cat,0.20,1154_nse_dnn_0.20_cat_10_n02123159_4876.png
swin_base,1,1155,NaN,dog,bear,0.35,1155_nse_dnn_0.35_bear_10_n02134418_2372.png
swin_base,1,1156,NaN,truck,chair,0.35,1156_nse_dnn_0.35_chair_10_n04429376_4341.png
swin_base,1,1157,NaN,bird,bicycle,0.03,1157_nse_dnn_0.03_bicycle_10_n03792782_17212.png
swin_base,1,1158,NaN,dog,truck,0.20,1158_nse_dnn_0.20_truck_10_n03796401_28656.png
swin_base,1,1159,NaN,knife,cat,0.90,1159_nse_dnn_0.90_cat_10_n02125311_5259.png
swin_base,1,1160,NaN,bird,oven,0.03,1160_nse_dnn_0.03_oven_10_n04111531_164.png
swin_base,1,1161,NaN,knife,truck,0.90,1161_nse_dnn_0.90_truck_10_n03417042_6554.png
swin_base,1,1162,NaN,knife,cat,0.90,1162_nse_dnn_0.90_cat_10_n02124075_7020.png
swin_base,1,1163,NaN,knife,oven,0.10,1163_nse_dnn_0.10_oven_10_n04111531_5218.png
swin_base,1,1164,NaN,knife,truck,0.10,1164_nse_dnn_0.10_truck_10_n03417042_18348.png
swin_base,1,1165,NaN,knife,bicycle,0.10,1165_nse_dnn_0.10_bicycle_10_n03792782_37212.png
swin_base,1,1166,NaN,elephant,chair,0.00,1166_nse_dnn_0.00_chair_10_n04429376_6915.png
swin_base,1,1167,NaN,car,bird,0.20,1167_nse_dnn_0.20_bird_10_n01560419_50.png
swin_base,1,1168,NaN,dog,elephant,0.10,1168_nse_dnn_0.10_elephant_10_n02504013_1577.png
swin_base,1,1169,NaN,knife,bottle,0.90,1169_nse_dnn_0.90_bottle_10_n03937543_7493.png
swin_base,1,1170,NaN,knife,dog,0.10,1170_nse_dnn_0.10_dog_10_n02109525_32744.png
swin_base,1,1171,NaN,knife,bear,0.60,1171_nse_dnn_0.60_bear_10_n02134418_3570.png
swin_base,1,1172,NaN,dog,chair,0.20,1172_nse_dnn_0.20_chair_10_n02791124_3994.png
swin_base,1,1173,NaN,knife,keyboard,0.20,1173_nse_dnn_0.20_keyboard_10_n04505470_5172.png
swin_base,1,1174,NaN,dog,dog,0.20,1174_nse_dnn_0.20_dog_10_n02093256_8061.png
swin_base,1,1175,NaN,chair,bird,0.00,1175_nse_dnn_0.00_bird_10_n01817953_1968.png
swin_base,1,1176,NaN,bird,bicycle,0.05,1176_nse_dnn_0.05_bicycle_10_n03792782_6083.png
swin_base,1,1177,NaN,knife,dog,0.10,1177_nse_dnn_0.10_dog_10_n02106550_3020.png
swin_base,1,1178,NaN,truck,car,0.90,1178_nse_dnn_0.90_car_10_n02814533_27929.png
swin_base,1,1179,NaN,bird,car,0.05,1179_nse_dnn_0.05_car_10_n04285008_4047.png
swin_base,1,1180,NaN,truck,oven,0.60,1180_nse_dnn_0.60_oven_10_n04111531_9429.png
swin_base,1,1181,NaN,elephant,dog,0.05,1181_nse_dnn_0.05_dog_10_n02112350_5035.png
swin_base,1,1182,NaN,dog,bicycle,0.10,1182_nse_dnn_0.10_bicycle_10_n02835271_25417.png
swin_base,1,1183,NaN,car,truck,0.03,1183_nse_dnn_0.03_truck_10_n04467665_51949.png
swin_base,1,1184,NaN,knife,bird,0.90,1184_nse_dnn_0.90_bird_10_n01833805_5088.png
swin_base,1,1185,NaN,knife,knife,0.35,1185_nse_dnn_0.35_knife_10_n03041632_4494.png
swin_base,1,1186,NaN,knife,bottle,0.10,1186_nse_dnn_0.10_bottle_10_n03983396_11859.png
swin_base,1,1187,NaN,boat,knife,0.05,1187_nse_dnn_0.05_knife_10_n03041632_105581.png
