subj,session,trial,rt,object_response,category,condition,imagename
barlow_twins,1,1,NaN,chair,boat,0.7,0001_hp_dnn_0.7_boat_10_n03662601_12531.png
barlow_twins,1,2,NaN,elephant,chair,0.7,0002_hp_dnn_0.7_chair_10_n04429376_22819.png
barlow_twins,1,3,NaN,elephant,elephant,0.45,0003_hp_dnn_0.45_elephant_10_n02504458_582.png
barlow_twins,1,4,NaN,elephant,bicycle,0.7,0004_hp_dnn_0.7_bicycle_10_n03792782_41173.png
barlow_twins,1,5,NaN,elephant,cat,1.5,0005_hp_dnn_1.5_cat_10_n02123597_7071.png
barlow_twins,1,6,NaN,truck,cat,0.4,0006_hp_dnn_0.4_cat_10_n02123394_2386.png
barlow_twins,1,7,NaN,elephant,oven,inf,0007_hp_dnn_inf_oven_10_n04111531_2201.png
barlow_twins,1,8,NaN,airplane,cat,0.45,0008_hp_dnn_0.45_cat_10_n02125311_43276.png
barlow_twins,1,9,NaN,elephant,dog,0.45,0009_hp_dnn_0.45_dog_10_n02111500_2439.png
barlow_twins,1,10,NaN,elephant,bicycle,0.4,0010_hp_dnn_0.4_bicycle_10_n02835271_12599.png
barlow_twins,1,11,NaN,elephant,dog,0.45,0011_hp_dnn_0.45_dog_10_n02096585_391.png
barlow_twins,1,12,NaN,car,car,0.7,0012_hp_dnn_0.7_car_10_n04285008_12138.png
barlow_twins,1,13,NaN,elephant,car,0.7,0013_hp_dnn_0.7_car_10_n02814533_44083.png
barlow_twins,1,14,NaN,knife,oven,inf,0014_hp_dnn_inf_oven_10_n04111531_2447.png
barlow_twins,1,15,NaN,elephant,chair,0.55,0015_hp_dnn_0.55_chair_10_n03376595_9524.png
barlow_twins,1,16,NaN,elephant,elephant,0.55,0016_hp_dnn_0.55_elephant_10_n02504458_3092.png
barlow_twins,1,17,NaN,elephant,truck,0.4,0017_hp_dnn_0.4_truck_10_n04467665_42126.png
barlow_twins,1,18,NaN,knife,elephant,inf,0018_hp_dnn_inf_elephant_10_n02504458_12303.png
barlow_twins,1,19,NaN,knife,clock,0.4,0019_hp_dnn_0.4_clock_10_n04548280_7243.png
barlow_twins,1,20,NaN,elephant,airplane,0.4,0020_hp_dnn_0.4_airplane_10_n02690373_6978.png
barlow_twins,1,21,NaN,knife,boat,3,0021_hp_dnn_3_boat_10_n04612504_4773.png
barlow_twins,1,22,NaN,oven,bottle,inf,0022_hp_dnn_inf_bottle_10_n04560804_5979.png
barlow_twins,1,23,NaN,knife,airplane,3,0023_hp_dnn_3_airplane_10_n02690373_21922.png
barlow_twins,1,24,NaN,truck,bird,0.4,0024_hp_dnn_0.4_bird_10_n01820546_6431.png
barlow_twins,1,25,NaN,oven,bird,inf,0025_hp_dnn_inf_bird_10_n01795545_9555.png
barlow_twins,1,26,NaN,keyboard,truck,3,0026_hp_dnn_3_truck_10_n04467665_45796.png
barlow_twins,1,27,NaN,elephant,oven,1,0027_hp_dnn_1_oven_10_n04111531_5906.png
barlow_twins,1,28,NaN,elephant,bicycle,0.45,0028_hp_dnn_0.45_bicycle_10_n03792782_6133.png
barlow_twins,1,29,NaN,keyboard,keyboard,1,0029_hp_dnn_1_keyboard_10_n04505470_4741.png
barlow_twins,1,30,NaN,knife,car,1.5,0030_hp_dnn_1.5_car_10_n02814533_5085.png
barlow_twins,1,31,NaN,truck,chair,0.4,0031_hp_dnn_0.4_chair_10_n04429376_10628.png
barlow_twins,1,32,NaN,truck,clock,0.55,0032_hp_dnn_0.55_clock_10_n02708093_5311.png
barlow_twins,1,33,NaN,elephant,chair,0.55,0033_hp_dnn_0.55_chair_10_n03376595_10460.png
barlow_twins,1,34,NaN,knife,bear,3,0034_hp_dnn_3_bear_10_n02133161_1118.png
barlow_twins,1,35,NaN,oven,knife,3,0035_hp_dnn_3_knife_10_n03041632_11603.png
barlow_twins,1,36,NaN,elephant,dog,0.4,0036_hp_dnn_0.4_dog_10_n02108422_7493.png
barlow_twins,1,37,NaN,chair,keyboard,3,0037_hp_dnn_3_keyboard_10_n04505470_550.png
barlow_twins,1,38,NaN,elephant,dog,1.5,0038_hp_dnn_1.5_dog_10_n02097047_1003.png
barlow_twins,1,39,NaN,keyboard,bird,1.5,0039_hp_dnn_1.5_bird_10_n01616318_9819.png
barlow_twins,1,40,NaN,airplane,cat,0.55,0040_hp_dnn_0.55_cat_10_n02123597_1016.png
barlow_twins,1,41,NaN,elephant,bear,1,0041_hp_dnn_1_bear_10_n02134418_971.png
barlow_twins,1,42,NaN,airplane,bear,0.7,0042_hp_dnn_0.7_bear_10_n02132136_10944.png
barlow_twins,1,43,NaN,airplane,elephant,1,0043_hp_dnn_1_elephant_10_n02504458_4439.png
barlow_twins,1,44,NaN,airplane,keyboard,0.4,0044_hp_dnn_0.4_keyboard_10_n03085013_2362.png
barlow_twins,1,45,NaN,truck,dog,1.5,0045_hp_dnn_1.5_dog_10_n02097474_9488.png
barlow_twins,1,46,NaN,oven,clock,inf,0046_hp_dnn_inf_clock_10_n04548280_3308.png
barlow_twins,1,47,NaN,elephant,bear,1.5,0047_hp_dnn_1.5_bear_10_n02133161_334.png
barlow_twins,1,48,NaN,truck,knife,0.45,0048_hp_dnn_0.45_knife_10_n03041632_6708.png
barlow_twins,1,49,NaN,elephant,car,0.55,0049_hp_dnn_0.55_car_10_n02814533_81092.png
barlow_twins,1,50,NaN,elephant,bottle,0.45,0050_hp_dnn_0.45_bottle_10_n03937543_11897.png
barlow_twins,1,51,NaN,knife,airplane,3,0051_hp_dnn_3_airplane_10_n02690373_4429.png
barlow_twins,1,52,NaN,elephant,knife,0.4,0052_hp_dnn_0.4_knife_10_n03041632_22964.png
barlow_twins,1,53,NaN,chair,knife,1.5,0053_hp_dnn_1.5_knife_10_n03041632_33075.png
barlow_twins,1,54,NaN,chair,bird,0.7,0054_hp_dnn_0.7_bird_10_n02006656_1412.png
barlow_twins,1,55,NaN,elephant,clock,1,0055_hp_dnn_1_clock_10_n02708093_3173.png
barlow_twins,1,56,NaN,truck,keyboard,0.45,0056_hp_dnn_0.45_keyboard_10_n03085013_22016.png
barlow_twins,1,57,NaN,elephant,elephant,0.55,0057_hp_dnn_0.55_elephant_10_n02504458_11214.png
barlow_twins,1,58,NaN,elephant,chair,0.7,0058_hp_dnn_0.7_chair_10_n04099969_13775.png
barlow_twins,1,59,NaN,elephant,bicycle,0.4,0059_hp_dnn_0.4_bicycle_10_n02835271_8098.png
barlow_twins,1,60,NaN,airplane,clock,0.4,0060_hp_dnn_0.4_clock_10_n04548280_1126.png
barlow_twins,1,61,NaN,elephant,bicycle,0.45,0061_hp_dnn_0.45_bicycle_10_n02835271_2050.png
barlow_twins,1,62,NaN,elephant,oven,1,0062_hp_dnn_1_oven_10_n04111531_891.png
barlow_twins,1,63,NaN,airplane,bottle,0.7,0063_hp_dnn_0.7_bottle_10_n02823428_6201.png
barlow_twins,1,64,NaN,bear,bicycle,0.7,0064_hp_dnn_0.7_bicycle_10_n02835271_20175.png
barlow_twins,1,65,NaN,bottle,cat,3,0065_hp_dnn_3_cat_10_n02123597_13175.png
barlow_twins,1,66,NaN,truck,dog,0.4,0066_hp_dnn_0.4_dog_10_n02085936_4391.png
barlow_twins,1,67,NaN,knife,airplane,1.5,0067_hp_dnn_1.5_airplane_10_n02690373_8846.png
barlow_twins,1,68,NaN,elephant,cat,1.5,0068_hp_dnn_1.5_cat_10_n02123597_10301.png
barlow_twins,1,69,NaN,truck,elephant,0.7,0069_hp_dnn_0.7_elephant_10_n02504458_6135.png
barlow_twins,1,70,NaN,elephant,keyboard,0.45,0070_hp_dnn_0.45_keyboard_10_n03085013_22585.png
barlow_twins,1,71,NaN,truck,bird,1,0071_hp_dnn_1_bird_10_n02017213_1150.png
barlow_twins,1,72,NaN,keyboard,bottle,3,0072_hp_dnn_3_bottle_10_n04560804_30885.png
barlow_twins,1,73,NaN,keyboard,bicycle,inf,0073_hp_dnn_inf_bicycle_10_n02835271_9191.png
barlow_twins,1,74,NaN,knife,truck,inf,0074_hp_dnn_inf_truck_10_n03796401_7699.png
barlow_twins,1,75,NaN,knife,knife,1.5,0075_hp_dnn_1.5_knife_10_n03041632_50332.png
barlow_twins,1,76,NaN,elephant,knife,0.55,0076_hp_dnn_0.55_knife_10_n03041632_36247.png
barlow_twins,1,77,NaN,elephant,knife,1.5,0077_hp_dnn_1.5_knife_10_n03041632_23667.png
barlow_twins,1,78,NaN,knife,dog,3,0078_hp_dnn_3_dog_10_n02102973_7028.png
barlow_twins,1,79,NaN,elephant,oven,0.55,0079_hp_dnn_0.55_oven_10_n04111531_9867.png
barlow_twins,1,80,NaN,elephant,car,0.55,0080_hp_dnn_0.55_car_10_n02814533_8121.png
barlow_twins,1,81,NaN,elephant,boat,0.55,0081_hp_dnn_0.55_boat_10_n03662601_5210.png
barlow_twins,1,82,NaN,oven,car,1.5,0082_hp_dnn_1.5_car_10_n03100240_6192.png
barlow_twins,1,83,NaN,elephant,oven,0.45,0083_hp_dnn_0.45_oven_10_n04111531_9314.png
barlow_twins,1,84,NaN,elephant,cat,0.4,0084_hp_dnn_0.4_cat_10_n02123045_5189.png
barlow_twins,1,85,NaN,knife,truck,0.7,0085_hp_dnn_0.7_truck_10_n04467665_30189.png
barlow_twins,1,86,NaN,oven,airplane,1.5,0086_hp_dnn_1.5_airplane_10_n02690373_3377.png
barlow_twins,1,87,NaN,elephant,oven,0.4,0087_hp_dnn_0.4_oven_10_n04111531_1750.png
barlow_twins,1,88,NaN,bear,dog,inf,0088_hp_dnn_inf_dog_10_n02097047_2877.png
barlow_twins,1,89,NaN,knife,cat,inf,0089_hp_dnn_inf_cat_10_n02124075_15171.png
barlow_twins,1,90,NaN,elephant,car,0.4,0090_hp_dnn_0.4_car_10_n03100240_23060.png
barlow_twins,1,91,NaN,knife,knife,inf,0091_hp_dnn_inf_knife_10_n03041632_20595.png
barlow_twins,1,92,NaN,elephant,knife,0.45,0092_hp_dnn_0.45_knife_10_n03041632_2184.png
barlow_twins,1,93,NaN,elephant,knife,0.4,0093_hp_dnn_0.4_knife_10_n03041632_42162.png
barlow_twins,1,94,NaN,keyboard,elephant,1,0094_hp_dnn_1_elephant_10_n02504458_3535.png
barlow_twins,1,95,NaN,knife,bird,inf,0095_hp_dnn_inf_bird_10_n02056570_11311.png
barlow_twins,1,96,NaN,elephant,chair,0.4,0096_hp_dnn_0.4_chair_10_n03376595_4121.png
barlow_twins,1,97,NaN,keyboard,dog,1,0097_hp_dnn_1_dog_10_n02086240_3572.png
barlow_twins,1,98,NaN,knife,elephant,inf,0098_hp_dnn_inf_elephant_10_n02504013_4523.png
barlow_twins,1,99,NaN,oven,chair,inf,0099_hp_dnn_inf_chair_10_n04429376_7902.png
barlow_twins,1,100,NaN,elephant,bird,0.45,0100_hp_dnn_0.45_bird_10_n01530575_14402.png
barlow_twins,1,101,NaN,elephant,bottle,0.55,0101_hp_dnn_0.55_bottle_10_n02823428_11140.png
barlow_twins,1,102,NaN,truck,airplane,0.55,0102_hp_dnn_0.55_airplane_10_n02690373_7685.png
barlow_twins,1,103,NaN,oven,boat,0.45,0103_hp_dnn_0.45_boat_10_n03344393_4827.png
barlow_twins,1,104,NaN,elephant,dog,0.7,0104_hp_dnn_0.7_dog_10_n02088364_8674.png
barlow_twins,1,105,NaN,elephant,knife,0.45,0105_hp_dnn_0.45_knife_10_n03041632_32004.png
barlow_twins,1,106,NaN,airplane,keyboard,3,0106_hp_dnn_3_keyboard_10_n03085013_22949.png
barlow_twins,1,107,NaN,elephant,knife,0.7,0107_hp_dnn_0.7_knife_10_n03041632_4044.png
barlow_twins,1,108,NaN,knife,airplane,1.5,0108_hp_dnn_1.5_airplane_10_n02690373_6455.png
barlow_twins,1,109,NaN,truck,airplane,0.55,0109_hp_dnn_0.55_airplane_10_n02690373_19646.png
barlow_twins,1,110,NaN,knife,boat,inf,0110_hp_dnn_inf_boat_10_n04612504_1692.png
barlow_twins,1,111,NaN,truck,cat,0.55,0111_hp_dnn_0.55_cat_10_n02124075_853.png
barlow_twins,1,112,NaN,chair,boat,1,0112_hp_dnn_1_boat_10_n04273569_6071.png
barlow_twins,1,113,NaN,keyboard,bird,1.5,0113_hp_dnn_1.5_bird_10_n01616318_1214.png
barlow_twins,1,114,NaN,keyboard,car,1.5,0114_hp_dnn_1.5_car_10_n02814533_14627.png
barlow_twins,1,115,NaN,oven,keyboard,0.7,0115_hp_dnn_0.7_keyboard_10_n03085013_1483.png
barlow_twins,1,116,NaN,oven,airplane,0.55,0116_hp_dnn_0.55_airplane_10_n02690373_7401.png
barlow_twins,1,117,NaN,elephant,keyboard,0.55,0117_hp_dnn_0.55_keyboard_10_n03085013_6963.png
barlow_twins,1,118,NaN,knife,knife,3,0118_hp_dnn_3_knife_10_n03041632_1407.png
barlow_twins,1,119,NaN,knife,elephant,1.5,0119_hp_dnn_1.5_elephant_10_n02504458_5137.png
barlow_twins,1,120,NaN,car,clock,inf,0120_hp_dnn_inf_clock_10_n02708093_6635.png
barlow_twins,1,121,NaN,elephant,oven,0.4,0121_hp_dnn_0.4_oven_10_n04111531_5927.png
barlow_twins,1,122,NaN,elephant,clock,inf,0122_hp_dnn_inf_clock_10_n02708093_2043.png
barlow_twins,1,123,NaN,elephant,airplane,0.4,0123_hp_dnn_0.4_airplane_10_n02690373_7300.png
barlow_twins,1,124,NaN,elephant,oven,0.55,0124_hp_dnn_0.55_oven_10_n04111531_190.png
barlow_twins,1,125,NaN,knife,dog,3,0125_hp_dnn_3_dog_10_n02091244_8497.png
barlow_twins,1,126,NaN,elephant,bicycle,0.7,0126_hp_dnn_0.7_bicycle_10_n03792782_15932.png
barlow_twins,1,127,NaN,truck,bear,0.4,0127_hp_dnn_0.4_bear_10_n02133161_463.png
barlow_twins,1,128,NaN,elephant,cat,0.7,0128_hp_dnn_0.7_cat_10_n02123045_11126.png
barlow_twins,1,129,NaN,keyboard,clock,0.7,0129_hp_dnn_0.7_clock_10_n04548280_8646.png
barlow_twins,1,130,NaN,elephant,bottle,0.55,0130_hp_dnn_0.55_bottle_10_n03983396_11597.png
barlow_twins,1,131,NaN,knife,truck,3,0131_hp_dnn_3_truck_10_n03417042_212.png
barlow_twins,1,132,NaN,truck,keyboard,1,0132_hp_dnn_1_keyboard_10_n04505470_1724.png
barlow_twins,1,133,NaN,elephant,chair,1,0133_hp_dnn_1_chair_10_n04099969_14028.png
barlow_twins,1,134,NaN,elephant,cat,0.45,0134_hp_dnn_0.45_cat_10_n02124075_2138.png
barlow_twins,1,135,NaN,car,boat,inf,0135_hp_dnn_inf_boat_10_n03662601_3145.png
barlow_twins,1,136,NaN,elephant,cat,3,0136_hp_dnn_3_cat_10_n02123045_1120.png
barlow_twins,1,137,NaN,knife,boat,inf,0137_hp_dnn_inf_boat_10_n04612504_31305.png
barlow_twins,1,138,NaN,elephant,chair,1,0138_hp_dnn_1_chair_10_n04099969_4275.png
barlow_twins,1,139,NaN,elephant,keyboard,0.4,0139_hp_dnn_0.4_keyboard_10_n03085013_23005.png
barlow_twins,1,140,NaN,airplane,airplane,1,0140_hp_dnn_1_airplane_10_n02690373_9618.png
barlow_twins,1,141,NaN,chair,knife,0.55,0141_hp_dnn_0.55_knife_10_n03041632_17338.png
barlow_twins,1,142,NaN,elephant,clock,0.45,0142_hp_dnn_0.45_clock_10_n04548280_8225.png
barlow_twins,1,143,NaN,bottle,car,inf,0143_hp_dnn_inf_car_10_n03100240_8907.png
barlow_twins,1,144,NaN,elephant,chair,1.5,0144_hp_dnn_1.5_chair_10_n03376595_6865.png
barlow_twins,1,145,NaN,truck,bicycle,0.45,0145_hp_dnn_0.45_bicycle_10_n03792782_44296.png
barlow_twins,1,146,NaN,oven,boat,1.5,0146_hp_dnn_1.5_boat_10_n04273569_1233.png
barlow_twins,1,147,NaN,elephant,bird,1,0147_hp_dnn_1_bird_10_n01824575_12784.png
barlow_twins,1,148,NaN,oven,boat,3,0148_hp_dnn_3_boat_10_n03344393_408.png
barlow_twins,1,149,NaN,keyboard,airplane,1,0149_hp_dnn_1_airplane_10_n02690373_220.png
barlow_twins,1,150,NaN,clock,chair,3,0150_hp_dnn_3_chair_10_n04429376_10546.png
barlow_twins,1,151,NaN,clock,oven,0.7,0151_hp_dnn_0.7_oven_10_n04111531_4749.png
barlow_twins,1,152,NaN,elephant,truck,0.4,0152_hp_dnn_0.4_truck_10_n03417042_18124.png
barlow_twins,1,153,NaN,oven,clock,3,0153_hp_dnn_3_clock_10_n03196217_7353.png
barlow_twins,1,154,NaN,elephant,dog,0.7,0154_hp_dnn_0.7_dog_10_n02098286_2699.png
barlow_twins,1,155,NaN,elephant,truck,0.4,0155_hp_dnn_0.4_truck_10_n03796401_3651.png
barlow_twins,1,156,NaN,truck,bottle,0.4,0156_hp_dnn_0.4_bottle_10_n03983396_4165.png
barlow_twins,1,157,NaN,elephant,knife,1,0157_hp_dnn_1_knife_10_n03041632_25257.png
barlow_twins,1,158,NaN,elephant,chair,3,0158_hp_dnn_3_chair_10_n04099969_1229.png
barlow_twins,1,159,NaN,bottle,bird,inf,0159_hp_dnn_inf_bird_10_n01798484_518.png
barlow_twins,1,160,NaN,oven,bird,inf,0160_hp_dnn_inf_bird_10_n01797886_1953.png
barlow_twins,1,161,NaN,oven,bird,3,0161_hp_dnn_3_bird_10_n01820546_228.png
barlow_twins,1,162,NaN,elephant,bear,1.5,0162_hp_dnn_1.5_bear_10_n02134418_2666.png
barlow_twins,1,163,NaN,keyboard,boat,1.5,0163_hp_dnn_1.5_boat_10_n03344393_7659.png
barlow_twins,1,164,NaN,oven,oven,1.5,0164_hp_dnn_1.5_oven_10_n04111531_1752.png
barlow_twins,1,165,NaN,elephant,dog,inf,0165_hp_dnn_inf_dog_10_n02091032_8873.png
barlow_twins,1,166,NaN,oven,oven,0.7,0166_hp_dnn_0.7_oven_10_n04111531_14559.png
barlow_twins,1,167,NaN,airplane,cat,0.7,0167_hp_dnn_0.7_cat_10_n02123045_114.png
barlow_twins,1,168,NaN,knife,cat,3,0168_hp_dnn_3_cat_10_n02123597_13865.png
barlow_twins,1,169,NaN,oven,knife,0.55,0169_hp_dnn_0.55_knife_10_n03041632_13478.png
barlow_twins,1,170,NaN,elephant,elephant,0.55,0170_hp_dnn_0.55_elephant_10_n02504458_2618.png
barlow_twins,1,171,NaN,elephant,truck,1,0171_hp_dnn_1_truck_10_n04467665_56954.png
barlow_twins,1,172,NaN,elephant,chair,1,0172_hp_dnn_1_chair_10_n04429376_1791.png
barlow_twins,1,173,NaN,elephant,bottle,3,0173_hp_dnn_3_bottle_10_n04560804_33214.png
barlow_twins,1,174,NaN,airplane,knife,inf,0174_hp_dnn_inf_knife_10_n03041632_48816.png
barlow_twins,1,175,NaN,oven,cat,3,0175_hp_dnn_3_cat_10_n02123394_2274.png
barlow_twins,1,176,NaN,knife,truck,1.5,0176_hp_dnn_1.5_truck_10_n03796401_1326.png
barlow_twins,1,177,NaN,bottle,knife,0.55,0177_hp_dnn_0.55_knife_10_n03041632_11887.png
barlow_twins,1,178,NaN,chair,dog,0.7,0178_hp_dnn_0.7_dog_10_n02113978_8008.png
barlow_twins,1,179,NaN,elephant,cat,0.4,0179_hp_dnn_0.4_cat_10_n02123045_4812.png
barlow_twins,1,180,NaN,knife,bird,inf,0180_hp_dnn_inf_bird_10_n01833805_3578.png
barlow_twins,1,181,NaN,elephant,truck,1,0181_hp_dnn_1_truck_10_n03417042_3398.png
barlow_twins,1,182,NaN,elephant,bird,0.7,0182_hp_dnn_0.7_bird_10_n02007558_4566.png
barlow_twins,1,183,NaN,elephant,knife,0.45,0183_hp_dnn_0.45_knife_10_n03041632_3516.png
barlow_twins,1,184,NaN,elephant,cat,1.5,0184_hp_dnn_1.5_cat_10_n02124075_14965.png
barlow_twins,1,185,NaN,elephant,bird,0.4,0185_hp_dnn_0.4_bird_10_n01843065_2176.png
barlow_twins,1,186,NaN,oven,knife,3,0186_hp_dnn_3_knife_10_n03041632_21034.png
barlow_twins,1,187,NaN,chair,keyboard,1.5,0187_hp_dnn_1.5_keyboard_10_n03085013_24026.png
barlow_twins,1,188,NaN,elephant,bottle,0.55,0188_hp_dnn_0.55_bottle_10_n04560804_14395.png
barlow_twins,1,189,NaN,elephant,boat,0.45,0189_hp_dnn_0.45_boat_10_n02951358_11567.png
barlow_twins,1,190,NaN,elephant,chair,0.4,0190_hp_dnn_0.4_chair_10_n03376595_17747.png
barlow_twins,1,191,NaN,elephant,bottle,inf,0191_hp_dnn_inf_bottle_10_n04591713_5563.png
barlow_twins,1,192,NaN,truck,airplane,3,0192_hp_dnn_3_airplane_10_n02690373_7496.png
barlow_twins,1,193,NaN,truck,airplane,3,0193_hp_dnn_3_airplane_10_n02690373_4465.png
barlow_twins,1,194,NaN,elephant,bear,0.4,0194_hp_dnn_0.4_bear_10_n02134418_119.png
barlow_twins,1,195,NaN,elephant,bear,1.5,0195_hp_dnn_1.5_bear_10_n02133161_1970.png
barlow_twins,1,196,NaN,chair,bird,1.5,0196_hp_dnn_1.5_bird_10_n02018795_5488.png
barlow_twins,1,197,NaN,elephant,bird,0.45,0197_hp_dnn_0.45_bird_10_n01796340_1877.png
barlow_twins,1,198,NaN,truck,airplane,0.4,0198_hp_dnn_0.4_airplane_10_n02690373_4964.png
barlow_twins,1,199,NaN,elephant,bottle,0.4,0199_hp_dnn_0.4_bottle_10_n04591713_1762.png
barlow_twins,1,200,NaN,elephant,car,1,0200_hp_dnn_1_car_10_n03100240_6059.png
barlow_twins,1,201,NaN,elephant,chair,inf,0201_hp_dnn_inf_chair_10_n03376595_10769.png
barlow_twins,1,202,NaN,oven,oven,inf,0202_hp_dnn_inf_oven_10_n04111531_1723.png
barlow_twins,1,203,NaN,elephant,bicycle,0.45,0203_hp_dnn_0.45_bicycle_10_n02835271_3570.png
barlow_twins,1,204,NaN,elephant,knife,0.4,0204_hp_dnn_0.4_knife_10_n03041632_83826.png
barlow_twins,1,205,NaN,elephant,keyboard,0.7,0205_hp_dnn_0.7_keyboard_10_n03085013_20673.png
barlow_twins,1,206,NaN,oven,knife,1,0206_hp_dnn_1_knife_10_n03041632_27575.png
barlow_twins,1,207,NaN,oven,bird,1.5,0207_hp_dnn_1.5_bird_10_n01558993_14305.png
barlow_twins,1,208,NaN,airplane,bird,0.4,0208_hp_dnn_0.4_bird_10_n01537544_18123.png
barlow_twins,1,209,NaN,knife,bicycle,3,0209_hp_dnn_3_bicycle_10_n02835271_4307.png
barlow_twins,1,210,NaN,knife,car,0.7,0210_hp_dnn_0.7_car_10_n04285008_6320.png
barlow_twins,1,211,NaN,elephant,elephant,0.7,0211_hp_dnn_0.7_elephant_10_n02504458_1327.png
barlow_twins,1,212,NaN,truck,bottle,1,0212_hp_dnn_1_bottle_10_n04560804_1813.png
barlow_twins,1,213,NaN,airplane,cat,1,0213_hp_dnn_1_cat_10_n02124075_10085.png
barlow_twins,1,214,NaN,bottle,clock,inf,0214_hp_dnn_inf_clock_10_n03196217_2853.png
barlow_twins,1,215,NaN,chair,boat,1.5,0215_hp_dnn_1.5_boat_10_n04273569_10149.png
barlow_twins,1,216,NaN,clock,chair,3,0216_hp_dnn_3_chair_10_n03376595_17859.png
barlow_twins,1,217,NaN,elephant,dog,0.55,0217_hp_dnn_0.55_dog_10_n02101556_7581.png
barlow_twins,1,218,NaN,elephant,cat,0.4,0218_hp_dnn_0.4_cat_10_n02125311_8522.png
barlow_twins,1,219,NaN,elephant,clock,0.45,0219_hp_dnn_0.45_clock_10_n04548280_4345.png
barlow_twins,1,220,NaN,truck,truck,inf,0220_hp_dnn_inf_truck_10_n04467665_4088.png
barlow_twins,1,221,NaN,bear,dog,inf,0221_hp_dnn_inf_dog_10_n02102040_1100.png
barlow_twins,1,222,NaN,elephant,bicycle,0.55,0222_hp_dnn_0.55_bicycle_10_n03792782_15557.png
barlow_twins,1,223,NaN,bear,car,3,0223_hp_dnn_3_car_10_n04285008_12767.png
barlow_twins,1,224,NaN,elephant,boat,0.4,0224_hp_dnn_0.4_boat_10_n03662601_2438.png
barlow_twins,1,225,NaN,knife,truck,inf,0225_hp_dnn_inf_truck_10_n03417042_6419.png
barlow_twins,1,226,NaN,elephant,chair,0.45,0226_hp_dnn_0.45_chair_10_n04099969_9891.png
barlow_twins,1,227,NaN,oven,cat,inf,0227_hp_dnn_inf_cat_10_n02123045_8543.png
barlow_twins,1,228,NaN,elephant,cat,0.55,0228_hp_dnn_0.55_cat_10_n02123045_7342.png
barlow_twins,1,229,NaN,elephant,bird,0.55,0229_hp_dnn_0.55_bird_10_n02018207_10814.png
barlow_twins,1,230,NaN,knife,airplane,3,0230_hp_dnn_3_airplane_10_n02690373_20033.png
barlow_twins,1,231,NaN,oven,truck,0.55,0231_hp_dnn_0.55_truck_10_n04467665_13645.png
barlow_twins,1,232,NaN,oven,airplane,1.5,0232_hp_dnn_1.5_airplane_10_n02690373_5015.png
barlow_twins,1,233,NaN,elephant,chair,1.5,0233_hp_dnn_1.5_chair_10_n03376595_6173.png
barlow_twins,1,234,NaN,elephant,knife,1.5,0234_hp_dnn_1.5_knife_10_n03041632_91967.png
barlow_twins,1,235,NaN,elephant,elephant,inf,0235_hp_dnn_inf_elephant_10_n02504458_1271.png
barlow_twins,1,236,NaN,oven,cat,0.7,0236_hp_dnn_0.7_cat_10_n02123597_1684.png
barlow_twins,1,237,NaN,elephant,dog,0.55,0237_hp_dnn_0.55_dog_10_n02091831_3628.png
barlow_twins,1,238,NaN,elephant,truck,0.45,0238_hp_dnn_0.45_truck_10_n04467665_64540.png
barlow_twins,1,239,NaN,elephant,airplane,1,0239_hp_dnn_1_airplane_10_n02690373_3289.png
barlow_twins,1,240,NaN,oven,boat,3,0240_hp_dnn_3_boat_10_n04273569_16949.png
barlow_twins,1,241,NaN,truck,bicycle,1,0241_hp_dnn_1_bicycle_10_n03792782_15174.png
barlow_twins,1,242,NaN,elephant,bottle,1.5,0242_hp_dnn_1.5_bottle_10_n03937543_146.png
barlow_twins,1,243,NaN,elephant,chair,0.45,0243_hp_dnn_0.45_chair_10_n04429376_694.png
barlow_twins,1,244,NaN,elephant,keyboard,0.4,0244_hp_dnn_0.4_keyboard_10_n03085013_19407.png
barlow_twins,1,245,NaN,truck,oven,0.45,0245_hp_dnn_0.45_oven_10_n04111531_4955.png
barlow_twins,1,246,NaN,bottle,dog,1.5,0246_hp_dnn_1.5_dog_10_n02099712_1825.png
barlow_twins,1,247,NaN,elephant,bear,0.55,0247_hp_dnn_0.55_bear_10_n02134084_14031.png
barlow_twins,1,248,NaN,elephant,car,0.45,0248_hp_dnn_0.45_car_10_n02814533_70922.png
barlow_twins,1,249,NaN,elephant,elephant,0.45,0249_hp_dnn_0.45_elephant_10_n02504458_217.png
barlow_twins,1,250,NaN,keyboard,car,inf,0250_hp_dnn_inf_car_10_n02814533_27824.png
barlow_twins,1,251,NaN,clock,keyboard,0.7,0251_hp_dnn_0.7_keyboard_10_n03085013_24257.png
barlow_twins,1,252,NaN,knife,elephant,3,0252_hp_dnn_3_elephant_10_n02504013_2269.png
barlow_twins,1,253,NaN,elephant,bear,0.45,0253_hp_dnn_0.45_bear_10_n02134418_1798.png
barlow_twins,1,254,NaN,elephant,dog,0.45,0254_hp_dnn_0.45_dog_10_n02111129_6881.png
barlow_twins,1,255,NaN,keyboard,truck,1.5,0255_hp_dnn_1.5_truck_10_n04467665_67315.png
barlow_twins,1,256,NaN,truck,elephant,0.55,0256_hp_dnn_0.55_elephant_10_n02504013_3688.png
barlow_twins,1,257,NaN,oven,truck,1.5,0257_hp_dnn_1.5_truck_10_n04467665_38886.png
barlow_twins,1,258,NaN,oven,bottle,inf,0258_hp_dnn_inf_bottle_10_n04557648_4250.png
barlow_twins,1,259,NaN,elephant,chair,0.45,0259_hp_dnn_0.45_chair_10_n04099969_4053.png
barlow_twins,1,260,NaN,elephant,knife,0.7,0260_hp_dnn_0.7_knife_10_n03041632_5727.png
barlow_twins,1,261,NaN,elephant,dog,1,0261_hp_dnn_1_dog_10_n02091134_4525.png
barlow_twins,1,262,NaN,knife,keyboard,inf,0262_hp_dnn_inf_keyboard_10_n04505470_4685.png
barlow_twins,1,263,NaN,elephant,boat,0.4,0263_hp_dnn_0.4_boat_10_n02951358_6637.png
barlow_twins,1,264,NaN,oven,dog,1.5,0264_hp_dnn_1.5_dog_10_n02093256_11232.png
barlow_twins,1,265,NaN,knife,elephant,inf,0265_hp_dnn_inf_elephant_10_n02504013_816.png
barlow_twins,1,266,NaN,elephant,bear,1.5,0266_hp_dnn_1.5_bear_10_n02134084_1484.png
barlow_twins,1,267,NaN,elephant,boat,0.45,0267_hp_dnn_0.45_boat_10_n04273569_15859.png
barlow_twins,1,268,NaN,bottle,bicycle,3,0268_hp_dnn_3_bicycle_10_n02835271_7311.png
barlow_twins,1,269,NaN,elephant,cat,1,0269_hp_dnn_1_cat_10_n02123045_2339.png
barlow_twins,1,270,NaN,truck,elephant,0.45,0270_hp_dnn_0.45_elephant_10_n02504458_4448.png
barlow_twins,1,271,NaN,knife,car,1,0271_hp_dnn_1_car_10_n03100240_9955.png
barlow_twins,1,272,NaN,elephant,truck,0.55,0272_hp_dnn_0.55_truck_10_n03417042_7310.png
barlow_twins,1,273,NaN,elephant,chair,0.55,0273_hp_dnn_0.55_chair_10_n04099969_20421.png
barlow_twins,1,274,NaN,elephant,boat,0.45,0274_hp_dnn_0.45_boat_10_n04612504_4581.png
barlow_twins,1,275,NaN,elephant,bear,1,0275_hp_dnn_1_bear_10_n02134418_4515.png
barlow_twins,1,276,NaN,elephant,truck,0.7,0276_hp_dnn_0.7_truck_10_n03796401_1082.png
barlow_twins,1,277,NaN,elephant,bicycle,1,0277_hp_dnn_1_bicycle_10_n03792782_8176.png
barlow_twins,1,278,NaN,elephant,oven,0.4,0278_hp_dnn_0.4_oven_10_n04111531_5463.png
barlow_twins,1,279,NaN,elephant,elephant,1.5,0279_hp_dnn_1.5_elephant_10_n02504013_4166.png
barlow_twins,1,280,NaN,oven,airplane,0.7,0280_hp_dnn_0.7_airplane_10_n02690373_18295.png
barlow_twins,1,281,NaN,elephant,cat,0.45,0281_hp_dnn_0.45_cat_10_n02124075_1460.png
barlow_twins,1,282,NaN,elephant,bird,0.55,0282_hp_dnn_0.55_bird_10_n02028035_17759.png
barlow_twins,1,283,NaN,oven,chair,3,0283_hp_dnn_3_chair_10_n02791124_6654.png
barlow_twins,1,284,NaN,oven,truck,0.7,0284_hp_dnn_0.7_truck_10_n04467665_22974.png
barlow_twins,1,285,NaN,keyboard,clock,0.55,0285_hp_dnn_0.55_clock_10_n03196217_2983.png
barlow_twins,1,286,NaN,airplane,knife,inf,0286_hp_dnn_inf_knife_10_n03041632_23968.png
barlow_twins,1,287,NaN,airplane,keyboard,0.4,0287_hp_dnn_0.4_keyboard_10_n03085013_23519.png
barlow_twins,1,288,NaN,clock,bottle,1.5,0288_hp_dnn_1.5_bottle_10_n04591713_14895.png
barlow_twins,1,289,NaN,elephant,elephant,1,0289_hp_dnn_1_elephant_10_n02504013_3969.png
barlow_twins,1,290,NaN,keyboard,bear,3,0290_hp_dnn_3_bear_10_n02134418_3723.png
barlow_twins,1,291,NaN,elephant,keyboard,0.45,0291_hp_dnn_0.45_keyboard_10_n04505470_709.png
barlow_twins,1,292,NaN,bottle,knife,1.5,0292_hp_dnn_1.5_knife_10_n03041632_379.png
barlow_twins,1,293,NaN,oven,oven,3,0293_hp_dnn_3_oven_10_n04111531_13128.png
barlow_twins,1,294,NaN,elephant,elephant,0.55,0294_hp_dnn_0.55_elephant_10_n02504013_933.png
barlow_twins,1,295,NaN,knife,airplane,inf,0295_hp_dnn_inf_airplane_10_n02690373_17603.png
barlow_twins,1,296,NaN,elephant,airplane,0.45,0296_hp_dnn_0.45_airplane_10_n02690373_5177.png
barlow_twins,1,297,NaN,knife,chair,1.5,0297_hp_dnn_1.5_chair_10_n04429376_28121.png
barlow_twins,1,298,NaN,elephant,truck,0.55,0298_hp_dnn_0.55_truck_10_n03417042_6517.png
barlow_twins,1,299,NaN,oven,chair,0.55,0299_hp_dnn_0.55_chair_10_n03376595_5503.png
barlow_twins,1,300,NaN,oven,clock,1.5,0300_hp_dnn_1.5_clock_10_n03196217_7918.png
barlow_twins,1,301,NaN,oven,car,1,0301_hp_dnn_1_car_10_n04285008_7751.png
barlow_twins,1,302,NaN,airplane,clock,0.4,0302_hp_dnn_0.4_clock_10_n03196217_2628.png
barlow_twins,1,303,NaN,elephant,bird,0.55,0303_hp_dnn_0.55_bird_10_n01833805_6395.png
barlow_twins,1,304,NaN,airplane,boat,0.4,0304_hp_dnn_0.4_boat_10_n03344393_6015.png
barlow_twins,1,305,NaN,elephant,elephant,1.5,0305_hp_dnn_1.5_elephant_10_n02504013_2739.png
barlow_twins,1,306,NaN,truck,keyboard,0.45,0306_hp_dnn_0.45_keyboard_10_n03085013_23316.png
barlow_twins,1,307,NaN,elephant,airplane,1,0307_hp_dnn_1_airplane_10_n02690373_20350.png
barlow_twins,1,308,NaN,bottle,clock,3,0308_hp_dnn_3_clock_10_n02708093_3484.png
barlow_twins,1,309,NaN,elephant,bicycle,0.55,0309_hp_dnn_0.55_bicycle_10_n03792782_10185.png
barlow_twins,1,310,NaN,knife,knife,3,0310_hp_dnn_3_knife_10_n03041632_42196.png
barlow_twins,1,311,NaN,oven,bird,inf,0311_hp_dnn_inf_bird_10_n01855672_6132.png
barlow_twins,1,312,NaN,elephant,bottle,0.4,0312_hp_dnn_0.4_bottle_10_n03983396_3047.png
barlow_twins,1,313,NaN,elephant,bottle,0.4,0313_hp_dnn_0.4_bottle_10_n04557648_2093.png
barlow_twins,1,314,NaN,airplane,keyboard,0.55,0314_hp_dnn_0.55_keyboard_10_n04505470_7686.png
barlow_twins,1,315,NaN,chair,bear,1.5,0315_hp_dnn_1.5_bear_10_n02132136_5051.png
barlow_twins,1,316,NaN,elephant,bear,1,0316_hp_dnn_1_bear_10_n02134418_24559.png
barlow_twins,1,317,NaN,elephant,oven,0.55,0317_hp_dnn_0.55_oven_10_n04111531_3702.png
barlow_twins,1,318,NaN,elephant,bicycle,1,0318_hp_dnn_1_bicycle_10_n02835271_24230.png
barlow_twins,1,319,NaN,airplane,keyboard,1.5,0319_hp_dnn_1.5_keyboard_10_n03085013_2272.png
barlow_twins,1,320,NaN,elephant,keyboard,0.55,0320_hp_dnn_0.55_keyboard_10_n03085013_23201.png
barlow_twins,1,321,NaN,keyboard,boat,1.5,0321_hp_dnn_1.5_boat_10_n04273569_9803.png
barlow_twins,1,322,NaN,truck,boat,0.4,0322_hp_dnn_0.4_boat_10_n04612504_29813.png
barlow_twins,1,323,NaN,keyboard,clock,1,0323_hp_dnn_1_clock_10_n02708093_1291.png
barlow_twins,1,324,NaN,elephant,oven,0.4,0324_hp_dnn_0.4_oven_10_n04111531_1794.png
barlow_twins,1,325,NaN,elephant,bear,0.4,0325_hp_dnn_0.4_bear_10_n02132136_5612.png
barlow_twins,1,326,NaN,chair,boat,1.5,0326_hp_dnn_1.5_boat_10_n04273569_3401.png
barlow_twins,1,327,NaN,bottle,cat,3,0327_hp_dnn_3_cat_10_n02125311_16544.png
barlow_twins,1,328,NaN,oven,clock,1.5,0328_hp_dnn_1.5_clock_10_n03196217_10717.png
barlow_twins,1,329,NaN,oven,bear,3,0329_hp_dnn_3_bear_10_n02134418_47.png
barlow_twins,1,330,NaN,elephant,bottle,3,0330_hp_dnn_3_bottle_10_n04591713_4380.png
barlow_twins,1,331,NaN,elephant,chair,0.55,0331_hp_dnn_0.55_chair_10_n04429376_8710.png
barlow_twins,1,332,NaN,knife,bicycle,3,0332_hp_dnn_3_bicycle_10_n02835271_781.png
barlow_twins,1,333,NaN,elephant,bear,1.5,0333_hp_dnn_1.5_bear_10_n02134418_875.png
barlow_twins,1,334,NaN,oven,dog,0.55,0334_hp_dnn_0.55_dog_10_n02094433_10343.png
barlow_twins,1,335,NaN,knife,airplane,3,0335_hp_dnn_3_airplane_10_n02690373_1053.png
barlow_twins,1,336,NaN,airplane,airplane,3,0336_hp_dnn_3_airplane_10_n02690373_18848.png
barlow_twins,1,337,NaN,oven,keyboard,3,0337_hp_dnn_3_keyboard_10_n03085013_18741.png
barlow_twins,1,338,NaN,car,bear,inf,0338_hp_dnn_inf_bear_10_n02134418_3152.png
barlow_twins,1,339,NaN,clock,bicycle,1.5,0339_hp_dnn_1.5_bicycle_10_n03792782_14557.png
barlow_twins,1,340,NaN,airplane,bird,0.7,0340_hp_dnn_0.7_bird_10_n01796340_5262.png
barlow_twins,1,341,NaN,clock,bicycle,1,0341_hp_dnn_1_bicycle_10_n03792782_4559.png
barlow_twins,1,342,NaN,chair,bear,0.45,0342_hp_dnn_0.45_bear_10_n02134084_3177.png
barlow_twins,1,343,NaN,truck,elephant,0.4,0343_hp_dnn_0.4_elephant_10_n02504458_5008.png
barlow_twins,1,344,NaN,oven,oven,3,0344_hp_dnn_3_oven_10_n04111531_7955.png
barlow_twins,1,345,NaN,knife,bicycle,inf,0345_hp_dnn_inf_bicycle_10_n02835271_13793.png
barlow_twins,1,346,NaN,oven,keyboard,0.45,0346_hp_dnn_0.45_keyboard_10_n03085013_14810.png
barlow_twins,1,347,NaN,elephant,car,0.7,0347_hp_dnn_0.7_car_10_n02814533_39933.png
barlow_twins,1,348,NaN,knife,bird,1,0348_hp_dnn_1_bird_10_n02027492_4897.png
barlow_twins,1,349,NaN,airplane,keyboard,3,0349_hp_dnn_3_keyboard_10_n03085013_23776.png
barlow_twins,1,350,NaN,knife,car,1.5,0350_hp_dnn_1.5_car_10_n02814533_31493.png
barlow_twins,1,351,NaN,oven,boat,1.5,0351_hp_dnn_1.5_boat_10_n03344393_7631.png
barlow_twins,1,352,NaN,elephant,bicycle,0.4,0352_hp_dnn_0.4_bicycle_10_n02835271_1261.png
barlow_twins,1,353,NaN,clock,clock,1,0353_hp_dnn_1_clock_10_n03196217_1850.png
barlow_twins,1,354,NaN,knife,bear,inf,0354_hp_dnn_inf_bear_10_n02132136_22387.png
barlow_twins,1,355,NaN,elephant,airplane,1.5,0355_hp_dnn_1.5_airplane_10_n02690373_2316.png
barlow_twins,1,356,NaN,elephant,cat,0.7,0356_hp_dnn_0.7_cat_10_n02123597_3634.png
barlow_twins,1,357,NaN,truck,bird,0.45,0357_hp_dnn_0.45_bird_10_n02018207_4151.png
barlow_twins,1,358,NaN,elephant,knife,0.7,0358_hp_dnn_0.7_knife_10_n03041632_94155.png
barlow_twins,1,359,NaN,elephant,bottle,0.45,0359_hp_dnn_0.45_bottle_10_n04560804_7509.png
barlow_twins,1,360,NaN,elephant,cat,0.4,0360_hp_dnn_0.4_cat_10_n02123045_12748.png
barlow_twins,1,361,NaN,elephant,elephant,0.7,0361_hp_dnn_0.7_elephant_10_n02504013_6.png
barlow_twins,1,362,NaN,elephant,elephant,0.4,0362_hp_dnn_0.4_elephant_10_n02504013_1492.png
barlow_twins,1,363,NaN,elephant,dog,0.4,0363_hp_dnn_0.4_dog_10_n02107142_27162.png
barlow_twins,1,364,NaN,elephant,bear,0.7,0364_hp_dnn_0.7_bear_10_n02134418_962.png
barlow_twins,1,365,NaN,knife,truck,0.7,0365_hp_dnn_0.7_truck_10_n03417042_9693.png
barlow_twins,1,366,NaN,elephant,oven,1,0366_hp_dnn_1_oven_10_n04111531_2116.png
barlow_twins,1,367,NaN,truck,keyboard,inf,0367_hp_dnn_inf_keyboard_10_n03085013_20460.png
barlow_twins,1,368,NaN,truck,bird,0.45,0368_hp_dnn_0.45_bird_10_n01796340_6191.png
barlow_twins,1,369,NaN,oven,oven,1.5,0369_hp_dnn_1.5_oven_10_n04111531_8046.png
barlow_twins,1,370,NaN,elephant,boat,0.45,0370_hp_dnn_0.45_boat_10_n03344393_11788.png
barlow_twins,1,371,NaN,knife,cat,inf,0371_hp_dnn_inf_cat_10_n02123394_2765.png
barlow_twins,1,372,NaN,elephant,bicycle,0.4,0372_hp_dnn_0.4_bicycle_10_n03792782_26834.png
barlow_twins,1,373,NaN,airplane,cat,1.5,0373_hp_dnn_1.5_cat_10_n02125311_37036.png
barlow_twins,1,374,NaN,elephant,bicycle,0.7,0374_hp_dnn_0.7_bicycle_10_n03792782_4067.png
barlow_twins,1,375,NaN,oven,bear,inf,0375_hp_dnn_inf_bear_10_n02134418_3886.png
barlow_twins,1,376,NaN,elephant,dog,0.7,0376_hp_dnn_0.7_dog_10_n02110185_9014.png
barlow_twins,1,377,NaN,airplane,bear,inf,0377_hp_dnn_inf_bear_10_n02134084_14888.png
barlow_twins,1,378,NaN,elephant,truck,1.5,0378_hp_dnn_1.5_truck_10_n03417042_5249.png
barlow_twins,1,379,NaN,elephant,oven,1,0379_hp_dnn_1_oven_10_n04111531_10711.png
barlow_twins,1,380,NaN,oven,car,1.5,0380_hp_dnn_1.5_car_10_n04285008_15271.png
barlow_twins,1,381,NaN,elephant,cat,0.45,0381_hp_dnn_0.45_cat_10_n02123597_12232.png
barlow_twins,1,382,NaN,boat,clock,3,0382_hp_dnn_3_clock_10_n04548280_8083.png
barlow_twins,1,383,NaN,elephant,chair,0.45,0383_hp_dnn_0.45_chair_10_n04099969_8946.png
barlow_twins,1,384,NaN,airplane,keyboard,0.7,0384_hp_dnn_0.7_keyboard_10_n03085013_21973.png
barlow_twins,1,385,NaN,elephant,bottle,0.7,0385_hp_dnn_0.7_bottle_10_n04560804_15225.png
barlow_twins,1,386,NaN,knife,cat,inf,0386_hp_dnn_inf_cat_10_n02123045_10395.png
barlow_twins,1,387,NaN,elephant,truck,0.45,0387_hp_dnn_0.45_truck_10_n03417042_4188.png
barlow_twins,1,388,NaN,airplane,keyboard,1.5,0388_hp_dnn_1.5_keyboard_10_n03085013_21615.png
barlow_twins,1,389,NaN,elephant,knife,inf,0389_hp_dnn_inf_knife_10_n03041632_26989.png
barlow_twins,1,390,NaN,truck,airplane,0.55,0390_hp_dnn_0.55_airplane_10_n02690373_16986.png
barlow_twins,1,391,NaN,keyboard,bicycle,inf,0391_hp_dnn_inf_bicycle_10_n02835271_9067.png
barlow_twins,1,392,NaN,truck,dog,0.45,0392_hp_dnn_0.45_dog_10_n02106382_9188.png
barlow_twins,1,393,NaN,airplane,boat,inf,0393_hp_dnn_inf_boat_10_n02951358_3205.png
barlow_twins,1,394,NaN,elephant,knife,0.4,0394_hp_dnn_0.4_knife_10_n03041632_45270.png
barlow_twins,1,395,NaN,knife,car,inf,0395_hp_dnn_inf_car_10_n03100240_6376.png
barlow_twins,1,396,NaN,keyboard,truck,1,0396_hp_dnn_1_truck_10_n03796401_430.png
barlow_twins,1,397,NaN,elephant,knife,0.7,0397_hp_dnn_0.7_knife_10_n03041632_24181.png
barlow_twins,1,398,NaN,elephant,bear,1,0398_hp_dnn_1_bear_10_n02134084_16190.png
barlow_twins,1,399,NaN,elephant,bear,0.55,0399_hp_dnn_0.55_bear_10_n02132136_7253.png
barlow_twins,1,400,NaN,elephant,boat,1,0400_hp_dnn_1_boat_10_n03662601_34676.png
barlow_twins,1,401,NaN,elephant,knife,0.55,0401_hp_dnn_0.55_knife_10_n03041632_81471.png
barlow_twins,1,402,NaN,elephant,cat,0.7,0402_hp_dnn_0.7_cat_10_n02123597_3822.png
barlow_twins,1,403,NaN,keyboard,keyboard,1.5,0403_hp_dnn_1.5_keyboard_10_n03085013_4823.png
barlow_twins,1,404,NaN,airplane,dog,0.4,0404_hp_dnn_0.4_dog_10_n02108551_8385.png
barlow_twins,1,405,NaN,elephant,cat,0.7,0405_hp_dnn_0.7_cat_10_n02124075_8732.png
barlow_twins,1,406,NaN,bottle,dog,3,0406_hp_dnn_3_dog_10_n02093428_17625.png
barlow_twins,1,407,NaN,truck,chair,inf,0407_hp_dnn_inf_chair_10_n02791124_6999.png
barlow_twins,1,408,NaN,knife,bird,3,0408_hp_dnn_3_bird_10_n02028035_521.png
barlow_twins,1,409,NaN,elephant,truck,0.4,0409_hp_dnn_0.4_truck_10_n03417042_750.png
barlow_twins,1,410,NaN,knife,airplane,inf,0410_hp_dnn_inf_airplane_10_n02690373_5779.png
barlow_twins,1,411,NaN,truck,cat,1.5,0411_hp_dnn_1.5_cat_10_n02123045_7154.png
barlow_twins,1,412,NaN,bottle,bottle,1.5,0412_hp_dnn_1.5_bottle_10_n04591713_6958.png
barlow_twins,1,413,NaN,elephant,bird,1.5,0413_hp_dnn_1.5_bird_10_n01818515_42621.png
barlow_twins,1,414,NaN,keyboard,truck,inf,0414_hp_dnn_inf_truck_10_n03796401_1330.png
barlow_twins,1,415,NaN,bottle,bird,1.5,0415_hp_dnn_1.5_bird_10_n01843065_6365.png
barlow_twins,1,416,NaN,oven,bottle,1.5,0416_hp_dnn_1.5_bottle_10_n03983396_11898.png
barlow_twins,1,417,NaN,bear,bird,3,0417_hp_dnn_3_bird_10_n01530575_3831.png
barlow_twins,1,418,NaN,elephant,bottle,0.4,0418_hp_dnn_0.4_bottle_10_n03983396_8837.png
barlow_twins,1,419,NaN,elephant,car,0.7,0419_hp_dnn_0.7_car_10_n02814533_90798.png
barlow_twins,1,420,NaN,knife,bird,3,0420_hp_dnn_3_bird_10_n01819313_3440.png
barlow_twins,1,421,NaN,elephant,dog,0.55,0421_hp_dnn_0.55_dog_10_n02090721_4433.png
barlow_twins,1,422,NaN,chair,elephant,3,0422_hp_dnn_3_elephant_10_n02504013_9566.png
barlow_twins,1,423,NaN,elephant,dog,1.5,0423_hp_dnn_1.5_dog_10_n02105251_6599.png
barlow_twins,1,424,NaN,elephant,chair,0.7,0424_hp_dnn_0.7_chair_10_n02791124_5759.png
barlow_twins,1,425,NaN,elephant,elephant,inf,0425_hp_dnn_inf_elephant_10_n02504458_150.png
barlow_twins,1,426,NaN,airplane,clock,0.45,0426_hp_dnn_0.45_clock_10_n04548280_10040.png
barlow_twins,1,427,NaN,elephant,elephant,0.7,0427_hp_dnn_0.7_elephant_10_n02504458_155.png
barlow_twins,1,428,NaN,bottle,knife,1,0428_hp_dnn_1_knife_10_n03041632_48062.png
barlow_twins,1,429,NaN,truck,truck,1.5,0429_hp_dnn_1.5_truck_10_n04467665_40361.png
barlow_twins,1,430,NaN,elephant,bird,0.45,0430_hp_dnn_0.45_bird_10_n01614925_7608.png
barlow_twins,1,431,NaN,elephant,bear,0.45,0431_hp_dnn_0.45_bear_10_n02133161_2749.png
barlow_twins,1,432,NaN,elephant,boat,0.55,0432_hp_dnn_0.55_boat_10_n04612504_654.png
barlow_twins,1,433,NaN,oven,bottle,1,0433_hp_dnn_1_bottle_10_n04579145_287.png
barlow_twins,1,434,NaN,bottle,bear,3,0434_hp_dnn_3_bear_10_n02133161_1423.png
barlow_twins,1,435,NaN,elephant,bicycle,0.7,0435_hp_dnn_0.7_bicycle_10_n02835271_4656.png
barlow_twins,1,436,NaN,keyboard,clock,0.7,0436_hp_dnn_0.7_clock_10_n02708093_3688.png
barlow_twins,1,437,NaN,knife,airplane,inf,0437_hp_dnn_inf_airplane_10_n02690373_10278.png
barlow_twins,1,438,NaN,elephant,car,0.4,0438_hp_dnn_0.4_car_10_n04285008_11133.png
barlow_twins,1,439,NaN,elephant,knife,1,0439_hp_dnn_1_knife_10_n03041632_4214.png
barlow_twins,1,440,NaN,keyboard,oven,inf,0440_hp_dnn_inf_oven_10_n04111531_7741.png
barlow_twins,1,441,NaN,chair,bicycle,3,0441_hp_dnn_3_bicycle_10_n03792782_4472.png
barlow_twins,1,442,NaN,truck,bird,0.7,0442_hp_dnn_0.7_bird_10_n01798484_18666.png
barlow_twins,1,443,NaN,airplane,keyboard,1.5,0443_hp_dnn_1.5_keyboard_10_n04505470_5059.png
barlow_twins,1,444,NaN,elephant,elephant,0.55,0444_hp_dnn_0.55_elephant_10_n02504013_2369.png
barlow_twins,1,445,NaN,clock,bottle,3,0445_hp_dnn_3_bottle_10_n02823428_10796.png
barlow_twins,1,446,NaN,bear,oven,3,0446_hp_dnn_3_oven_10_n04111531_4421.png
barlow_twins,1,447,NaN,keyboard,bicycle,inf,0447_hp_dnn_inf_bicycle_10_n02835271_7303.png
barlow_twins,1,448,NaN,truck,chair,inf,0448_hp_dnn_inf_chair_10_n02791124_7877.png
barlow_twins,1,449,NaN,keyboard,bottle,1.5,0449_hp_dnn_1.5_bottle_10_n04560804_12099.png
barlow_twins,1,450,NaN,keyboard,boat,1,0450_hp_dnn_1_boat_10_n03662601_18924.png
barlow_twins,1,451,NaN,oven,bottle,1,0451_hp_dnn_1_bottle_10_n04591713_4206.png
barlow_twins,1,452,NaN,elephant,clock,0.55,0452_hp_dnn_0.55_clock_10_n04548280_6689.png
barlow_twins,1,453,NaN,airplane,dog,0.4,0453_hp_dnn_0.4_dog_10_n02090721_5305.png
barlow_twins,1,454,NaN,bear,clock,0.7,0454_hp_dnn_0.7_clock_10_n03196217_1746.png
barlow_twins,1,455,NaN,knife,keyboard,3,0455_hp_dnn_3_keyboard_10_n04505470_7721.png
barlow_twins,1,456,NaN,keyboard,clock,0.55,0456_hp_dnn_0.55_clock_10_n04548280_3248.png
barlow_twins,1,457,NaN,knife,bird,inf,0457_hp_dnn_inf_bird_10_n01534433_28009.png
barlow_twins,1,458,NaN,elephant,chair,0.4,0458_hp_dnn_0.4_chair_10_n04099969_142.png
barlow_twins,1,459,NaN,elephant,bicycle,0.55,0459_hp_dnn_0.55_bicycle_10_n03792782_7092.png
barlow_twins,1,460,NaN,elephant,keyboard,0.45,0460_hp_dnn_0.45_keyboard_10_n03085013_25559.png
barlow_twins,1,461,NaN,elephant,elephant,0.7,0461_hp_dnn_0.7_elephant_10_n02504013_9144.png
barlow_twins,1,462,NaN,oven,clock,0.45,0462_hp_dnn_0.45_clock_10_n03196217_2003.png
barlow_twins,1,463,NaN,elephant,elephant,1,0463_hp_dnn_1_elephant_10_n02504013_3169.png
barlow_twins,1,464,NaN,elephant,dog,0.55,0464_hp_dnn_0.55_dog_10_n02089867_6424.png
barlow_twins,1,465,NaN,knife,keyboard,1,0465_hp_dnn_1_keyboard_10_n03085013_22494.png
barlow_twins,1,466,NaN,elephant,dog,0.4,0466_hp_dnn_0.4_dog_10_n02106662_37555.png
barlow_twins,1,467,NaN,keyboard,car,0.55,0467_hp_dnn_0.55_car_10_n02814533_4726.png
barlow_twins,1,468,NaN,elephant,elephant,0.45,0468_hp_dnn_0.45_elephant_10_n02504458_1473.png
barlow_twins,1,469,NaN,elephant,bottle,0.55,0469_hp_dnn_0.55_bottle_10_n04557648_3350.png
barlow_twins,1,470,NaN,elephant,knife,0.4,0470_hp_dnn_0.4_knife_10_n03041632_31909.png
barlow_twins,1,471,NaN,elephant,truck,0.4,0471_hp_dnn_0.4_truck_10_n04467665_70880.png
barlow_twins,1,472,NaN,truck,dog,0.45,0472_hp_dnn_0.45_dog_10_n02097209_7557.png
barlow_twins,1,473,NaN,truck,oven,1,0473_hp_dnn_1_oven_10_n04111531_4438.png
barlow_twins,1,474,NaN,elephant,airplane,0.7,0474_hp_dnn_0.7_airplane_10_n02690373_194.png
barlow_twins,1,475,NaN,elephant,bicycle,1.5,0475_hp_dnn_1.5_bicycle_10_n02835271_6953.png
barlow_twins,1,476,NaN,elephant,oven,0.45,0476_hp_dnn_0.45_oven_10_n04111531_14435.png
barlow_twins,1,477,NaN,elephant,elephant,1.5,0477_hp_dnn_1.5_elephant_10_n02504013_5192.png
barlow_twins,1,478,NaN,elephant,chair,0.7,0478_hp_dnn_0.7_chair_10_n03376595_3566.png
barlow_twins,1,479,NaN,elephant,truck,1,0479_hp_dnn_1_truck_10_n03417042_22709.png
barlow_twins,1,480,NaN,oven,keyboard,inf,0480_hp_dnn_inf_keyboard_10_n04505470_4603.png
barlow_twins,1,481,NaN,elephant,car,0.55,0481_hp_dnn_0.55_car_10_n03100240_1794.png
barlow_twins,1,482,NaN,elephant,elephant,0.7,0482_hp_dnn_0.7_elephant_10_n02504458_1233.png
barlow_twins,1,483,NaN,elephant,airplane,0.45,0483_hp_dnn_0.45_airplane_10_n02690373_3047.png
barlow_twins,1,484,NaN,truck,elephant,0.55,0484_hp_dnn_0.55_elephant_10_n02504013_7422.png
barlow_twins,1,485,NaN,elephant,bicycle,0.45,0485_hp_dnn_0.45_bicycle_10_n03792782_16034.png
barlow_twins,1,486,NaN,truck,bicycle,3,0486_hp_dnn_3_bicycle_10_n02835271_11922.png
barlow_twins,1,487,NaN,knife,truck,0.7,0487_hp_dnn_0.7_truck_10_n03796401_6526.png
barlow_twins,1,488,NaN,keyboard,boat,3,0488_hp_dnn_3_boat_10_n03662601_1834.png
barlow_twins,1,489,NaN,airplane,dog,0.7,0489_hp_dnn_0.7_dog_10_n02100236_619.png
barlow_twins,1,490,NaN,elephant,truck,0.45,0490_hp_dnn_0.45_truck_10_n04467665_21266.png
barlow_twins,1,491,NaN,elephant,chair,0.55,0491_hp_dnn_0.55_chair_10_n04099969_18220.png
barlow_twins,1,492,NaN,oven,keyboard,1.5,0492_hp_dnn_1.5_keyboard_10_n03085013_4157.png
barlow_twins,1,493,NaN,elephant,bicycle,0.4,0493_hp_dnn_0.4_bicycle_10_n03792782_1276.png
barlow_twins,1,494,NaN,airplane,boat,3,0494_hp_dnn_3_boat_10_n03344393_1987.png
barlow_twins,1,495,NaN,truck,boat,0.45,0495_hp_dnn_0.45_boat_10_n03344393_381.png
barlow_twins,1,496,NaN,elephant,clock,inf,0496_hp_dnn_inf_clock_10_n02708093_8390.png
barlow_twins,1,497,NaN,oven,keyboard,0.55,0497_hp_dnn_0.55_keyboard_10_n04505470_1043.png
barlow_twins,1,498,NaN,elephant,dog,0.55,0498_hp_dnn_0.55_dog_10_n02100877_1902.png
barlow_twins,1,499,NaN,elephant,knife,1.5,0499_hp_dnn_1.5_knife_10_n03041632_55083.png
barlow_twins,1,500,NaN,elephant,truck,1.5,0500_hp_dnn_1.5_truck_10_n04467665_45872.png
barlow_twins,1,501,NaN,elephant,boat,0.7,0501_hp_dnn_0.7_boat_10_n04273569_3244.png
barlow_twins,1,502,NaN,elephant,bear,0.45,0502_hp_dnn_0.45_bear_10_n02134418_2157.png
barlow_twins,1,503,NaN,knife,bottle,3,0503_hp_dnn_3_bottle_10_n04591713_17618.png
barlow_twins,1,504,NaN,elephant,cat,1,0504_hp_dnn_1_cat_10_n02125311_8496.png
barlow_twins,1,505,NaN,bear,car,inf,0505_hp_dnn_inf_car_10_n02814533_3560.png
barlow_twins,1,506,NaN,elephant,truck,0.7,0506_hp_dnn_0.7_truck_10_n03417042_751.png
barlow_twins,1,507,NaN,keyboard,keyboard,inf,0507_hp_dnn_inf_keyboard_10_n03085013_23213.png
barlow_twins,1,508,NaN,airplane,bicycle,0.4,0508_hp_dnn_0.4_bicycle_10_n03792782_19709.png
barlow_twins,1,509,NaN,oven,oven,inf,0509_hp_dnn_inf_oven_10_n04111531_3076.png
barlow_twins,1,510,NaN,elephant,knife,0.4,0510_hp_dnn_0.4_knife_10_n03041632_14774.png
barlow_twins,1,511,NaN,elephant,car,0.7,0511_hp_dnn_0.7_car_10_n03100240_7703.png
barlow_twins,1,512,NaN,oven,bear,0.55,0512_hp_dnn_0.55_bear_10_n02134084_13434.png
barlow_twins,1,513,NaN,airplane,dog,inf,0513_hp_dnn_inf_dog_10_n02111500_4280.png
barlow_twins,1,514,NaN,elephant,bear,0.55,0514_hp_dnn_0.55_bear_10_n02132136_23853.png
barlow_twins,1,515,NaN,knife,bicycle,1.5,0515_hp_dnn_1.5_bicycle_10_n03792782_17193.png
barlow_twins,1,516,NaN,elephant,dog,1,0516_hp_dnn_1_dog_10_n02102177_5770.png
barlow_twins,1,517,NaN,elephant,bear,0.7,0517_hp_dnn_0.7_bear_10_n02132136_2279.png
barlow_twins,1,518,NaN,knife,bear,inf,0518_hp_dnn_inf_bear_10_n02134084_6910.png
barlow_twins,1,519,NaN,elephant,oven,0.7,0519_hp_dnn_0.7_oven_10_n04111531_9041.png
barlow_twins,1,520,NaN,bottle,cat,1,0520_hp_dnn_1_cat_10_n02123159_5424.png
barlow_twins,1,521,NaN,truck,bicycle,0.45,0521_hp_dnn_0.45_bicycle_10_n02835271_672.png
barlow_twins,1,522,NaN,elephant,airplane,0.45,0522_hp_dnn_0.45_airplane_10_n02690373_18111.png
barlow_twins,1,523,NaN,truck,clock,1,0523_hp_dnn_1_clock_10_n04548280_3013.png
barlow_twins,1,524,NaN,elephant,dog,0.45,0524_hp_dnn_0.45_dog_10_n02094258_4142.png
barlow_twins,1,525,NaN,bottle,clock,3,0525_hp_dnn_3_clock_10_n04548280_6919.png
barlow_twins,1,526,NaN,elephant,cat,0.4,0526_hp_dnn_0.4_cat_10_n02124075_16814.png
barlow_twins,1,527,NaN,airplane,clock,1,0527_hp_dnn_1_clock_10_n04548280_3342.png
barlow_twins,1,528,NaN,keyboard,boat,1,0528_hp_dnn_1_boat_10_n04612504_31680.png
barlow_twins,1,529,NaN,oven,keyboard,inf,0529_hp_dnn_inf_keyboard_10_n03085013_7962.png
barlow_twins,1,530,NaN,bottle,bicycle,3,0530_hp_dnn_3_bicycle_10_n02835271_949.png
barlow_twins,1,531,NaN,oven,keyboard,1,0531_hp_dnn_1_keyboard_10_n04505470_4228.png
barlow_twins,1,532,NaN,keyboard,boat,0.7,0532_hp_dnn_0.7_boat_10_n03344393_3219.png
barlow_twins,1,533,NaN,knife,elephant,3,0533_hp_dnn_3_elephant_10_n02504458_3399.png
barlow_twins,1,534,NaN,elephant,bird,0.55,0534_hp_dnn_0.55_bird_10_n01616318_12459.png
barlow_twins,1,535,NaN,truck,elephant,0.4,0535_hp_dnn_0.4_elephant_10_n02504013_1846.png
barlow_twins,1,536,NaN,elephant,bicycle,0.55,0536_hp_dnn_0.55_bicycle_10_n03792782_5097.png
barlow_twins,1,537,NaN,elephant,bottle,3,0537_hp_dnn_3_bottle_10_n02823428_5115.png
barlow_twins,1,538,NaN,airplane,keyboard,inf,0538_hp_dnn_inf_keyboard_10_n03085013_21282.png
barlow_twins,1,539,NaN,elephant,oven,0.4,0539_hp_dnn_0.4_oven_10_n04111531_1815.png
barlow_twins,1,540,NaN,elephant,chair,1,0540_hp_dnn_1_chair_10_n02791124_5268.png
barlow_twins,1,541,NaN,elephant,airplane,0.55,0541_hp_dnn_0.55_airplane_10_n02690373_3035.png
barlow_twins,1,542,NaN,car,dog,inf,0542_hp_dnn_inf_dog_10_n02107683_1460.png
barlow_twins,1,543,NaN,oven,boat,inf,0543_hp_dnn_inf_boat_10_n02951358_31813.png
barlow_twins,1,544,NaN,truck,bird,0.4,0544_hp_dnn_0.4_bird_10_n01797886_16808.png
barlow_twins,1,545,NaN,elephant,elephant,0.45,0545_hp_dnn_0.45_elephant_10_n02504458_4767.png
barlow_twins,1,546,NaN,knife,knife,3,0546_hp_dnn_3_knife_10_n03041632_41493.png
barlow_twins,1,547,NaN,knife,elephant,3,0547_hp_dnn_3_elephant_10_n02504458_3329.png
barlow_twins,1,548,NaN,elephant,cat,0.45,0548_hp_dnn_0.45_cat_10_n02124075_12467.png
barlow_twins,1,549,NaN,elephant,truck,0.7,0549_hp_dnn_0.7_truck_10_n03417042_6467.png
barlow_twins,1,550,NaN,knife,airplane,inf,0550_hp_dnn_inf_airplane_10_n02690373_734.png
barlow_twins,1,551,NaN,elephant,car,0.4,0551_hp_dnn_0.4_car_10_n02814533_85296.png
barlow_twins,1,552,NaN,elephant,elephant,0.7,0552_hp_dnn_0.7_elephant_10_n02504013_18005.png
barlow_twins,1,553,NaN,truck,clock,0.45,0553_hp_dnn_0.45_clock_10_n02708093_1495.png
barlow_twins,1,554,NaN,knife,car,1.5,0554_hp_dnn_1.5_car_10_n04285008_3462.png
barlow_twins,1,555,NaN,elephant,truck,0.4,0555_hp_dnn_0.4_truck_10_n03417042_22297.png
barlow_twins,1,556,NaN,oven,chair,3,0556_hp_dnn_3_chair_10_n04429376_7279.png
barlow_twins,1,557,NaN,clock,bicycle,3,0557_hp_dnn_3_bicycle_10_n02835271_6919.png
barlow_twins,1,558,NaN,elephant,oven,0.55,0558_hp_dnn_0.55_oven_10_n04111531_2260.png
barlow_twins,1,559,NaN,elephant,bear,0.7,0559_hp_dnn_0.7_bear_10_n02134084_5794.png
barlow_twins,1,560,NaN,elephant,airplane,0.7,0560_hp_dnn_0.7_airplane_10_n02690373_10397.png
barlow_twins,1,561,NaN,airplane,elephant,0.4,0561_hp_dnn_0.4_elephant_10_n02504458_2041.png
barlow_twins,1,562,NaN,elephant,chair,1,0562_hp_dnn_1_chair_10_n04429376_7732.png
barlow_twins,1,563,NaN,elephant,airplane,0.4,0563_hp_dnn_0.4_airplane_10_n02690373_4788.png
barlow_twins,1,564,NaN,elephant,dog,0.55,0564_hp_dnn_0.55_dog_10_n02097474_2799.png
barlow_twins,1,565,NaN,oven,bear,1.5,0565_hp_dnn_1.5_bear_10_n02134084_17849.png
barlow_twins,1,566,NaN,knife,dog,inf,0566_hp_dnn_inf_dog_10_n02086646_7064.png
barlow_twins,1,567,NaN,elephant,truck,0.55,0567_hp_dnn_0.55_truck_10_n03417042_7061.png
barlow_twins,1,568,NaN,elephant,bird,1,0568_hp_dnn_1_bird_10_n01820546_3605.png
barlow_twins,1,569,NaN,elephant,bear,0.4,0569_hp_dnn_0.4_bear_10_n02133161_2813.png
barlow_twins,1,570,NaN,airplane,bear,0.45,0570_hp_dnn_0.45_bear_10_n02132136_16636.png
barlow_twins,1,571,NaN,clock,oven,1.5,0571_hp_dnn_1.5_oven_10_n04111531_14959.png
barlow_twins,1,572,NaN,elephant,cat,0.45,0572_hp_dnn_0.45_cat_10_n02124075_5453.png
barlow_twins,1,573,NaN,elephant,cat,1,0573_hp_dnn_1_cat_10_n02124075_11528.png
barlow_twins,1,574,NaN,airplane,cat,1,0574_hp_dnn_1_cat_10_n02123159_3454.png
barlow_twins,1,575,NaN,airplane,bird,0.45,0575_hp_dnn_0.45_bird_10_n02025239_2227.png
barlow_twins,1,576,NaN,elephant,chair,0.7,0576_hp_dnn_0.7_chair_10_n03376595_12256.png
barlow_twins,1,577,NaN,oven,clock,1.5,0577_hp_dnn_1.5_clock_10_n02708093_6591.png
barlow_twins,1,578,NaN,elephant,chair,0.55,0578_hp_dnn_0.55_chair_10_n04099969_34144.png
barlow_twins,1,579,NaN,truck,bear,0.55,0579_hp_dnn_0.55_bear_10_n02132136_3563.png
barlow_twins,1,580,NaN,elephant,elephant,1,0580_hp_dnn_1_elephant_10_n02504013_6671.png
barlow_twins,1,581,NaN,oven,keyboard,0.7,0581_hp_dnn_0.7_keyboard_10_n03085013_22067.png
barlow_twins,1,582,NaN,knife,truck,inf,0582_hp_dnn_inf_truck_10_n03796401_1458.png
barlow_twins,1,583,NaN,elephant,bottle,0.45,0583_hp_dnn_0.45_bottle_10_n04591713_807.png
barlow_twins,1,584,NaN,elephant,car,1,0584_hp_dnn_1_car_10_n02814533_22693.png
barlow_twins,1,585,NaN,elephant,car,0.7,0585_hp_dnn_0.7_car_10_n02814533_5278.png
barlow_twins,1,586,NaN,truck,boat,1.5,0586_hp_dnn_1.5_boat_10_n03662601_10240.png
barlow_twins,1,587,NaN,keyboard,airplane,inf,0587_hp_dnn_inf_airplane_10_n02690373_9673.png
barlow_twins,1,588,NaN,elephant,bird,0.7,0588_hp_dnn_0.7_bird_10_n02009229_6029.png
barlow_twins,1,589,NaN,airplane,clock,0.4,0589_hp_dnn_0.4_clock_10_n02708093_2580.png
barlow_twins,1,590,NaN,elephant,elephant,0.4,0590_hp_dnn_0.4_elephant_10_n02504013_295.png
barlow_twins,1,591,NaN,elephant,car,0.7,0591_hp_dnn_0.7_car_10_n04285008_9893.png
barlow_twins,1,592,NaN,clock,chair,1.5,0592_hp_dnn_1.5_chair_10_n03376595_6850.png
barlow_twins,1,593,NaN,bear,boat,3,0593_hp_dnn_3_boat_10_n03662601_15713.png
barlow_twins,1,594,NaN,airplane,clock,0.4,0594_hp_dnn_0.4_clock_10_n04548280_9867.png
barlow_twins,1,595,NaN,bottle,airplane,1.5,0595_hp_dnn_1.5_airplane_10_n02690373_1450.png
barlow_twins,1,596,NaN,elephant,bicycle,0.45,0596_hp_dnn_0.45_bicycle_10_n03792782_7787.png
barlow_twins,1,597,NaN,elephant,chair,0.45,0597_hp_dnn_0.45_chair_10_n04099969_1219.png
barlow_twins,1,598,NaN,chair,keyboard,0.55,0598_hp_dnn_0.55_keyboard_10_n03085013_8325.png
barlow_twins,1,599,NaN,elephant,bicycle,0.55,0599_hp_dnn_0.55_bicycle_10_n02835271_14732.png
barlow_twins,1,600,NaN,keyboard,airplane,1.5,0600_hp_dnn_1.5_airplane_10_n02690373_4176.png
barlow_twins,1,601,NaN,truck,bird,1,0601_hp_dnn_1_bird_10_n01534433_905.png
barlow_twins,1,602,NaN,truck,truck,1.5,0602_hp_dnn_1.5_truck_10_n04467665_45306.png
barlow_twins,1,603,NaN,knife,elephant,3,0603_hp_dnn_3_elephant_10_n02504458_1617.png
barlow_twins,1,604,NaN,truck,oven,0.45,0604_hp_dnn_0.45_oven_10_n04111531_4148.png
barlow_twins,1,605,NaN,elephant,bird,0.55,0605_hp_dnn_0.55_bird_10_n02009912_91.png
barlow_twins,1,606,NaN,knife,knife,3,0606_hp_dnn_3_knife_10_n03041632_33739.png
barlow_twins,1,607,NaN,oven,airplane,1,0607_hp_dnn_1_airplane_10_n02690373_9318.png
barlow_twins,1,608,NaN,elephant,bird,0.4,0608_hp_dnn_0.4_bird_10_n01828970_8669.png
barlow_twins,1,609,NaN,clock,truck,1.5,0609_hp_dnn_1.5_truck_10_n04467665_58762.png
barlow_twins,1,610,NaN,knife,car,3,0610_hp_dnn_3_car_10_n03100240_11417.png
barlow_twins,1,611,NaN,clock,bicycle,inf,0611_hp_dnn_inf_bicycle_10_n03792782_16179.png
barlow_twins,1,612,NaN,elephant,car,1,0612_hp_dnn_1_car_10_n04285008_8444.png
barlow_twins,1,613,NaN,keyboard,chair,inf,0613_hp_dnn_inf_chair_10_n02791124_3240.png
barlow_twins,1,614,NaN,elephant,bicycle,0.7,0614_hp_dnn_0.7_bicycle_10_n02835271_1035.png
barlow_twins,1,615,NaN,elephant,bicycle,0.55,0615_hp_dnn_0.55_bicycle_10_n02835271_6167.png
barlow_twins,1,616,NaN,knife,bottle,3,0616_hp_dnn_3_bottle_10_n02823428_6830.png
barlow_twins,1,617,NaN,elephant,knife,0.45,0617_hp_dnn_0.45_knife_10_n03041632_17349.png
barlow_twins,1,618,NaN,knife,airplane,inf,0618_hp_dnn_inf_airplane_10_n02690373_2024.png
barlow_twins,1,619,NaN,truck,bottle,1,0619_hp_dnn_1_bottle_10_n02823428_8034.png
barlow_twins,1,620,NaN,elephant,chair,1,0620_hp_dnn_1_chair_10_n02791124_6786.png
barlow_twins,1,621,NaN,elephant,chair,0.45,0621_hp_dnn_0.45_chair_10_n03376595_10689.png
barlow_twins,1,622,NaN,elephant,knife,0.4,0622_hp_dnn_0.4_knife_10_n03041632_22734.png
barlow_twins,1,623,NaN,elephant,oven,0.4,0623_hp_dnn_0.4_oven_10_n04111531_10521.png
barlow_twins,1,624,NaN,knife,bird,inf,0624_hp_dnn_inf_bird_10_n02007558_37147.png
barlow_twins,1,625,NaN,oven,oven,3,0625_hp_dnn_3_oven_10_n04111531_14753.png
barlow_twins,1,626,NaN,elephant,bottle,0.7,0626_hp_dnn_0.7_bottle_10_n03983396_4990.png
barlow_twins,1,627,NaN,oven,cat,0.45,0627_hp_dnn_0.45_cat_10_n02125311_25104.png
barlow_twins,1,628,NaN,elephant,truck,0.55,0628_hp_dnn_0.55_truck_10_n03417042_5600.png
barlow_twins,1,629,NaN,elephant,cat,0.55,0629_hp_dnn_0.55_cat_10_n02125311_34158.png
barlow_twins,1,630,NaN,elephant,knife,1,0630_hp_dnn_1_knife_10_n03041632_41077.png
barlow_twins,1,631,NaN,elephant,bicycle,0.45,0631_hp_dnn_0.45_bicycle_10_n03792782_19295.png
barlow_twins,1,632,NaN,elephant,elephant,1,0632_hp_dnn_1_elephant_10_n02504013_7500.png
barlow_twins,1,633,NaN,airplane,chair,0.4,0633_hp_dnn_0.4_chair_10_n04429376_20837.png
barlow_twins,1,634,NaN,elephant,oven,0.55,0634_hp_dnn_0.55_oven_10_n04111531_2371.png
barlow_twins,1,635,NaN,chair,bear,0.45,0635_hp_dnn_0.45_bear_10_n02132136_2108.png
barlow_twins,1,636,NaN,elephant,airplane,0.55,0636_hp_dnn_0.55_airplane_10_n02690373_7600.png
barlow_twins,1,637,NaN,airplane,bicycle,0.4,0637_hp_dnn_0.4_bicycle_10_n03792782_8329.png
barlow_twins,1,638,NaN,elephant,airplane,0.7,0638_hp_dnn_0.7_airplane_10_n02690373_9712.png
barlow_twins,1,639,NaN,knife,car,inf,0639_hp_dnn_inf_car_10_n02814533_43694.png
barlow_twins,1,640,NaN,airplane,bird,0.4,0640_hp_dnn_0.4_bird_10_n01828970_454.png
barlow_twins,1,641,NaN,truck,bear,1,0641_hp_dnn_1_bear_10_n02132136_1141.png
barlow_twins,1,642,NaN,clock,clock,0.7,0642_hp_dnn_0.7_clock_10_n03196217_6217.png
barlow_twins,1,643,NaN,clock,truck,1,0643_hp_dnn_1_truck_10_n03417042_4520.png
barlow_twins,1,644,NaN,elephant,dog,3,0644_hp_dnn_3_dog_10_n02093256_2633.png
barlow_twins,1,645,NaN,elephant,dog,0.4,0645_hp_dnn_0.4_dog_10_n02108000_7066.png
barlow_twins,1,646,NaN,bottle,dog,1.5,0646_hp_dnn_1.5_dog_10_n02099601_2805.png
barlow_twins,1,647,NaN,knife,dog,3,0647_hp_dnn_3_dog_10_n02091244_3193.png
barlow_twins,1,648,NaN,elephant,bicycle,1.5,0648_hp_dnn_1.5_bicycle_10_n02835271_358.png
barlow_twins,1,649,NaN,truck,boat,0.7,0649_hp_dnn_0.7_boat_10_n03344393_9459.png
barlow_twins,1,650,NaN,keyboard,truck,1,0650_hp_dnn_1_truck_10_n04467665_5053.png
barlow_twins,1,651,NaN,elephant,truck,0.45,0651_hp_dnn_0.45_truck_10_n04467665_36855.png
barlow_twins,1,652,NaN,elephant,car,0.45,0652_hp_dnn_0.45_car_10_n02814533_72255.png
barlow_twins,1,653,NaN,keyboard,airplane,1.5,0653_hp_dnn_1.5_airplane_10_n02690373_5789.png
barlow_twins,1,654,NaN,elephant,oven,0.4,0654_hp_dnn_0.4_oven_10_n04111531_9224.png
barlow_twins,1,655,NaN,knife,bird,inf,0655_hp_dnn_inf_bird_10_n01798484_4076.png
barlow_twins,1,656,NaN,oven,boat,1,0656_hp_dnn_1_boat_10_n04612504_1869.png
barlow_twins,1,657,NaN,elephant,cat,0.45,0657_hp_dnn_0.45_cat_10_n02123394_7335.png
barlow_twins,1,658,NaN,truck,boat,1,0658_hp_dnn_1_boat_10_n04612504_11379.png
barlow_twins,1,659,NaN,elephant,bicycle,1,0659_hp_dnn_1_bicycle_10_n03792782_18496.png
barlow_twins,1,660,NaN,airplane,bear,inf,0660_hp_dnn_inf_bear_10_n02133161_8471.png
barlow_twins,1,661,NaN,knife,keyboard,0.7,0661_hp_dnn_0.7_keyboard_10_n04505470_3929.png
barlow_twins,1,662,NaN,elephant,car,0.55,0662_hp_dnn_0.55_car_10_n03100240_6822.png
barlow_twins,1,663,NaN,truck,keyboard,0.4,0663_hp_dnn_0.4_keyboard_10_n04505470_207.png
barlow_twins,1,664,NaN,elephant,elephant,0.55,0664_hp_dnn_0.55_elephant_10_n02504458_7221.png
barlow_twins,1,665,NaN,knife,bottle,1.5,0665_hp_dnn_1.5_bottle_10_n03983396_2091.png
barlow_twins,1,666,NaN,elephant,knife,0.4,0666_hp_dnn_0.4_knife_10_n03041632_30602.png
barlow_twins,1,667,NaN,elephant,oven,0.45,0667_hp_dnn_0.45_oven_10_n04111531_7050.png
barlow_twins,1,668,NaN,elephant,car,0.45,0668_hp_dnn_0.45_car_10_n02814533_30383.png
barlow_twins,1,669,NaN,elephant,cat,0.7,0669_hp_dnn_0.7_cat_10_n02124075_7680.png
barlow_twins,1,670,NaN,elephant,oven,0.55,0670_hp_dnn_0.55_oven_10_n04111531_3265.png
barlow_twins,1,671,NaN,truck,oven,1.5,0671_hp_dnn_1.5_oven_10_n04111531_49.png
barlow_twins,1,672,NaN,oven,chair,inf,0672_hp_dnn_inf_chair_10_n02791124_8099.png
barlow_twins,1,673,NaN,elephant,bottle,0.7,0673_hp_dnn_0.7_bottle_10_n03937543_9606.png
barlow_twins,1,674,NaN,airplane,cat,inf,0674_hp_dnn_inf_cat_10_n02123045_4644.png
barlow_twins,1,675,NaN,elephant,chair,0.55,0675_hp_dnn_0.55_chair_10_n03376595_12251.png
barlow_twins,1,676,NaN,truck,chair,0.7,0676_hp_dnn_0.7_chair_10_n04429376_52822.png
barlow_twins,1,677,NaN,clock,chair,1.5,0677_hp_dnn_1.5_chair_10_n04429376_55898.png
barlow_twins,1,678,NaN,keyboard,bicycle,1.5,0678_hp_dnn_1.5_bicycle_10_n03792782_5106.png
barlow_twins,1,679,NaN,elephant,bear,0.4,0679_hp_dnn_0.4_bear_10_n02134418_5735.png
barlow_twins,1,680,NaN,truck,oven,0.45,0680_hp_dnn_0.45_oven_10_n04111531_3348.png
barlow_twins,1,681,NaN,keyboard,boat,0.7,0681_hp_dnn_0.7_boat_10_n04612504_37043.png
barlow_twins,1,682,NaN,bear,car,inf,0682_hp_dnn_inf_car_10_n02814533_40315.png
barlow_twins,1,683,NaN,elephant,clock,0.45,0683_hp_dnn_0.45_clock_10_n04548280_3782.png
barlow_twins,1,684,NaN,chair,knife,1.5,0684_hp_dnn_1.5_knife_10_n03041632_36907.png
barlow_twins,1,685,NaN,knife,car,inf,0685_hp_dnn_inf_car_10_n04285008_6587.png
barlow_twins,1,686,NaN,elephant,oven,0.45,0686_hp_dnn_0.45_oven_10_n04111531_9498.png
barlow_twins,1,687,NaN,clock,clock,0.7,0687_hp_dnn_0.7_clock_10_n03196217_3361.png
barlow_twins,1,688,NaN,elephant,truck,0.45,0688_hp_dnn_0.45_truck_10_n04467665_40002.png
barlow_twins,1,689,NaN,knife,keyboard,0.7,0689_hp_dnn_0.7_keyboard_10_n03085013_20805.png
barlow_twins,1,690,NaN,bottle,clock,3,0690_hp_dnn_3_clock_10_n04548280_9816.png
barlow_twins,1,691,NaN,elephant,truck,0.4,0691_hp_dnn_0.4_truck_10_n03417042_2293.png
barlow_twins,1,692,NaN,elephant,dog,1.5,0692_hp_dnn_1.5_dog_10_n02086910_730.png
barlow_twins,1,693,NaN,bottle,truck,3,0693_hp_dnn_3_truck_10_n04467665_25059.png
barlow_twins,1,694,NaN,keyboard,keyboard,3,0694_hp_dnn_3_keyboard_10_n03085013_5738.png
barlow_twins,1,695,NaN,elephant,bottle,0.7,0695_hp_dnn_0.7_bottle_10_n04557648_3775.png
barlow_twins,1,696,NaN,elephant,bear,0.45,0696_hp_dnn_0.45_bear_10_n02134084_22801.png
barlow_twins,1,697,NaN,elephant,airplane,3,0697_hp_dnn_3_airplane_10_n02690373_3468.png
barlow_twins,1,698,NaN,oven,clock,0.45,0698_hp_dnn_0.45_clock_10_n04548280_4713.png
barlow_twins,1,699,NaN,elephant,bird,0.4,0699_hp_dnn_0.4_bird_10_n02051845_3351.png
barlow_twins,1,700,NaN,knife,elephant,3,0700_hp_dnn_3_elephant_10_n02504458_6762.png
barlow_twins,1,701,NaN,elephant,bicycle,0.4,0701_hp_dnn_0.4_bicycle_10_n03792782_2327.png
barlow_twins,1,702,NaN,keyboard,bicycle,3,0702_hp_dnn_3_bicycle_10_n03792782_19985.png
barlow_twins,1,703,NaN,elephant,bear,3,0703_hp_dnn_3_bear_10_n02134084_2970.png
barlow_twins,1,704,NaN,truck,truck,0.55,0704_hp_dnn_0.55_truck_10_n03417042_10642.png
barlow_twins,1,705,NaN,keyboard,boat,3,0705_hp_dnn_3_boat_10_n03662601_3938.png
barlow_twins,1,706,NaN,elephant,chair,0.4,0706_hp_dnn_0.4_chair_10_n02791124_9414.png
barlow_twins,1,707,NaN,oven,clock,0.55,0707_hp_dnn_0.55_clock_10_n04548280_3605.png
barlow_twins,1,708,NaN,elephant,bottle,0.7,0708_hp_dnn_0.7_bottle_10_n04579145_2196.png
barlow_twins,1,709,NaN,airplane,knife,0.7,0709_hp_dnn_0.7_knife_10_n03041632_5801.png
barlow_twins,1,710,NaN,elephant,boat,0.4,0710_hp_dnn_0.4_boat_10_n02951358_11867.png
barlow_twins,1,711,NaN,bottle,clock,1,0711_hp_dnn_1_clock_10_n02708093_3266.png
barlow_twins,1,712,NaN,elephant,bicycle,0.55,0712_hp_dnn_0.55_bicycle_10_n03792782_4251.png
barlow_twins,1,713,NaN,elephant,bear,1,0713_hp_dnn_1_bear_10_n02132136_11125.png
barlow_twins,1,714,NaN,knife,elephant,3,0714_hp_dnn_3_elephant_10_n02504458_6821.png
barlow_twins,1,715,NaN,car,truck,3,0715_hp_dnn_3_truck_10_n04467665_77214.png
barlow_twins,1,716,NaN,oven,clock,1.5,0716_hp_dnn_1.5_clock_10_n03196217_10190.png
barlow_twins,1,717,NaN,chair,elephant,inf,0717_hp_dnn_inf_elephant_10_n02504458_1506.png
barlow_twins,1,718,NaN,bottle,boat,inf,0718_hp_dnn_inf_boat_10_n02951358_4189.png
barlow_twins,1,719,NaN,truck,bear,0.55,0719_hp_dnn_0.55_bear_10_n02132136_9311.png
barlow_twins,1,720,NaN,truck,airplane,inf,0720_hp_dnn_inf_airplane_10_n02690373_5564.png
barlow_twins,1,721,NaN,truck,airplane,0.45,0721_hp_dnn_0.45_airplane_10_n02690373_798.png
barlow_twins,1,722,NaN,elephant,airplane,0.7,0722_hp_dnn_0.7_airplane_10_n02690373_9642.png
barlow_twins,1,723,NaN,airplane,bear,0.7,0723_hp_dnn_0.7_bear_10_n02132136_19995.png
barlow_twins,1,724,NaN,knife,bicycle,inf,0724_hp_dnn_inf_bicycle_10_n02835271_14914.png
barlow_twins,1,725,NaN,elephant,chair,0.55,0725_hp_dnn_0.55_chair_10_n03376595_1862.png
barlow_twins,1,726,NaN,bear,bird,0.55,0726_hp_dnn_0.55_bird_10_n01824575_8564.png
barlow_twins,1,727,NaN,knife,knife,inf,0727_hp_dnn_inf_knife_10_n03041632_40450.png
barlow_twins,1,728,NaN,elephant,chair,0.45,0728_hp_dnn_0.45_chair_10_n03376595_8196.png
barlow_twins,1,729,NaN,car,boat,inf,0729_hp_dnn_inf_boat_10_n03662601_5968.png
barlow_twins,1,730,NaN,elephant,car,0.55,0730_hp_dnn_0.55_car_10_n03100240_3241.png
barlow_twins,1,731,NaN,knife,cat,inf,0731_hp_dnn_inf_cat_10_n02125311_18354.png
barlow_twins,1,732,NaN,oven,oven,0.55,0732_hp_dnn_0.55_oven_10_n04111531_11505.png
barlow_twins,1,733,NaN,elephant,clock,1,0733_hp_dnn_1_clock_10_n04548280_4229.png
barlow_twins,1,734,NaN,elephant,car,0.55,0734_hp_dnn_0.55_car_10_n02814533_12532.png
barlow_twins,1,735,NaN,elephant,chair,1.5,0735_hp_dnn_1.5_chair_10_n03376595_99.png
barlow_twins,1,736,NaN,airplane,keyboard,0.4,0736_hp_dnn_0.4_keyboard_10_n04505470_9762.png
barlow_twins,1,737,NaN,oven,bear,3,0737_hp_dnn_3_bear_10_n02132136_7647.png
barlow_twins,1,738,NaN,elephant,bottle,0.45,0738_hp_dnn_0.45_bottle_10_n04560804_19619.png
barlow_twins,1,739,NaN,elephant,truck,0.7,0739_hp_dnn_0.7_truck_10_n03417042_4292.png
barlow_twins,1,740,NaN,elephant,elephant,0.4,0740_hp_dnn_0.4_elephant_10_n02504458_3163.png
barlow_twins,1,741,NaN,elephant,elephant,1.5,0741_hp_dnn_1.5_elephant_10_n02504458_7144.png
barlow_twins,1,742,NaN,elephant,bear,0.55,0742_hp_dnn_0.55_bear_10_n02133161_4049.png
barlow_twins,1,743,NaN,airplane,bottle,0.7,0743_hp_dnn_0.7_bottle_10_n04591713_7074.png
barlow_twins,1,744,NaN,bottle,bear,inf,0744_hp_dnn_inf_bear_10_n02132136_13370.png
barlow_twins,1,745,NaN,bottle,clock,inf,0745_hp_dnn_inf_clock_10_n03196217_4844.png
barlow_twins,1,746,NaN,keyboard,car,3,0746_hp_dnn_3_car_10_n04285008_5467.png
barlow_twins,1,747,NaN,elephant,chair,1,0747_hp_dnn_1_chair_10_n04429376_24578.png
barlow_twins,1,748,NaN,knife,bird,3,0748_hp_dnn_3_bird_10_n02037110_11362.png
barlow_twins,1,749,NaN,oven,boat,3,0749_hp_dnn_3_boat_10_n03344393_5801.png
barlow_twins,1,750,NaN,elephant,airplane,0.7,0750_hp_dnn_0.7_airplane_10_n02690373_8611.png
barlow_twins,1,751,NaN,truck,elephant,0.7,0751_hp_dnn_0.7_elephant_10_n02504013_21877.png
barlow_twins,1,752,NaN,knife,keyboard,1,0752_hp_dnn_1_keyboard_10_n03085013_20483.png
barlow_twins,1,753,NaN,elephant,bottle,0.7,0753_hp_dnn_0.7_bottle_10_n04579145_3660.png
barlow_twins,1,754,NaN,knife,truck,inf,0754_hp_dnn_inf_truck_10_n04467665_83611.png
barlow_twins,1,755,NaN,airplane,cat,0.4,0755_hp_dnn_0.4_cat_10_n02123159_6381.png
barlow_twins,1,756,NaN,cat,truck,0.55,0756_hp_dnn_0.55_truck_10_n04467665_67853.png
barlow_twins,1,757,NaN,elephant,keyboard,0.55,0757_hp_dnn_0.55_keyboard_10_n03085013_24510.png
barlow_twins,1,758,NaN,knife,airplane,1,0758_hp_dnn_1_airplane_10_n02690373_4202.png
barlow_twins,1,759,NaN,knife,bicycle,inf,0759_hp_dnn_inf_bicycle_10_n02835271_8512.png
barlow_twins,1,760,NaN,airplane,bird,1.5,0760_hp_dnn_1.5_bird_10_n01537544_1126.png
barlow_twins,1,761,NaN,elephant,bicycle,0.55,0761_hp_dnn_0.55_bicycle_10_n02835271_12123.png
barlow_twins,1,762,NaN,elephant,oven,0.7,0762_hp_dnn_0.7_oven_10_n04111531_537.png
barlow_twins,1,763,NaN,truck,elephant,1,0763_hp_dnn_1_elephant_10_n02504013_6904.png
barlow_twins,1,764,NaN,elephant,bottle,0.55,0764_hp_dnn_0.55_bottle_10_n03937543_4098.png
barlow_twins,1,765,NaN,elephant,bottle,0.4,0765_hp_dnn_0.4_bottle_10_n04591713_7528.png
barlow_twins,1,766,NaN,knife,elephant,inf,0766_hp_dnn_inf_elephant_10_n02504013_648.png
barlow_twins,1,767,NaN,bottle,chair,inf,0767_hp_dnn_inf_chair_10_n03376595_9926.png
barlow_twins,1,768,NaN,elephant,oven,1,0768_hp_dnn_1_oven_10_n04111531_5781.png
barlow_twins,1,769,NaN,oven,chair,3,0769_hp_dnn_3_chair_10_n02791124_1023.png
barlow_twins,1,770,NaN,knife,dog,inf,0770_hp_dnn_inf_dog_10_n02099429_1915.png
barlow_twins,1,771,NaN,elephant,bear,0.7,0771_hp_dnn_0.7_bear_10_n02134084_5004.png
barlow_twins,1,772,NaN,elephant,knife,0.55,0772_hp_dnn_0.55_knife_10_n03041632_86554.png
barlow_twins,1,773,NaN,oven,oven,inf,0773_hp_dnn_inf_oven_10_n04111531_5802.png
barlow_twins,1,774,NaN,bottle,car,3,0774_hp_dnn_3_car_10_n04285008_6030.png
barlow_twins,1,775,NaN,oven,knife,1,0775_hp_dnn_1_knife_10_n03041632_39836.png
barlow_twins,1,776,NaN,truck,oven,1.5,0776_hp_dnn_1.5_oven_10_n04111531_6810.png
barlow_twins,1,777,NaN,oven,car,3,0777_hp_dnn_3_car_10_n03100240_2420.png
barlow_twins,1,778,NaN,oven,keyboard,3,0778_hp_dnn_3_keyboard_10_n03085013_19401.png
barlow_twins,1,779,NaN,bottle,chair,inf,0779_hp_dnn_inf_chair_10_n04099969_7399.png
barlow_twins,1,780,NaN,oven,keyboard,0.4,0780_hp_dnn_0.4_keyboard_10_n03085013_20736.png
barlow_twins,1,781,NaN,elephant,oven,0.7,0781_hp_dnn_0.7_oven_10_n04111531_686.png
barlow_twins,1,782,NaN,oven,bear,0.45,0782_hp_dnn_0.45_bear_10_n02132136_2875.png
barlow_twins,1,783,NaN,elephant,bicycle,1,0783_hp_dnn_1_bicycle_10_n02835271_1525.png
barlow_twins,1,784,NaN,airplane,elephant,inf,0784_hp_dnn_inf_elephant_10_n02504013_6769.png
barlow_twins,1,785,NaN,oven,cat,3,0785_hp_dnn_3_cat_10_n02124075_9613.png
barlow_twins,1,786,NaN,truck,cat,0.55,0786_hp_dnn_0.55_cat_10_n02125311_15099.png
barlow_twins,1,787,NaN,elephant,truck,1,0787_hp_dnn_1_truck_10_n04467665_7069.png
barlow_twins,1,788,NaN,elephant,dog,inf,0788_hp_dnn_inf_dog_10_n02108915_11897.png
barlow_twins,1,789,NaN,oven,bottle,0.4,0789_hp_dnn_0.4_bottle_10_n04557648_1107.png
barlow_twins,1,790,NaN,airplane,bottle,0.55,0790_hp_dnn_0.55_bottle_10_n03937543_2874.png
barlow_twins,1,791,NaN,elephant,truck,0.45,0791_hp_dnn_0.45_truck_10_n04467665_46192.png
barlow_twins,1,792,NaN,elephant,elephant,0.4,0792_hp_dnn_0.4_elephant_10_n02504458_63.png
barlow_twins,1,793,NaN,truck,oven,0.45,0793_hp_dnn_0.45_oven_10_n04111531_4346.png
barlow_twins,1,794,NaN,elephant,chair,0.45,0794_hp_dnn_0.45_chair_10_n03376595_14970.png
barlow_twins,1,795,NaN,elephant,airplane,0.45,0795_hp_dnn_0.45_airplane_10_n02690373_8204.png
barlow_twins,1,796,NaN,elephant,airplane,0.4,0796_hp_dnn_0.4_airplane_10_n02690373_20042.png
barlow_twins,1,797,NaN,elephant,bottle,0.4,0797_hp_dnn_0.4_bottle_10_n03983396_1151.png
barlow_twins,1,798,NaN,truck,dog,0.7,0798_hp_dnn_0.7_dog_10_n02096051_988.png
barlow_twins,1,799,NaN,truck,boat,0.4,0799_hp_dnn_0.4_boat_10_n03344393_7394.png
barlow_twins,1,800,NaN,oven,clock,1.5,0800_hp_dnn_1.5_clock_10_n03196217_8943.png
barlow_twins,1,801,NaN,elephant,bicycle,0.55,0801_hp_dnn_0.55_bicycle_10_n03792782_9412.png
barlow_twins,1,802,NaN,truck,bear,3,0802_hp_dnn_3_bear_10_n02132136_2236.png
barlow_twins,1,803,NaN,elephant,cat,1,0803_hp_dnn_1_cat_10_n02125311_12070.png
barlow_twins,1,804,NaN,chair,cat,3,0804_hp_dnn_3_cat_10_n02124075_5631.png
barlow_twins,1,805,NaN,oven,dog,0.7,0805_hp_dnn_0.7_dog_10_n02101006_16129.png
barlow_twins,1,806,NaN,elephant,boat,0.4,0806_hp_dnn_0.4_boat_10_n03344393_4509.png
barlow_twins,1,807,NaN,keyboard,bird,3,0807_hp_dnn_3_bird_10_n01514859_8585.png
barlow_twins,1,808,NaN,oven,bird,0.4,0808_hp_dnn_0.4_bird_10_n02011460_19684.png
barlow_twins,1,809,NaN,truck,boat,0.4,0809_hp_dnn_0.4_boat_10_n02951358_343.png
barlow_twins,1,810,NaN,truck,keyboard,1.5,0810_hp_dnn_1.5_keyboard_10_n04505470_5275.png
barlow_twins,1,811,NaN,elephant,elephant,0.55,0811_hp_dnn_0.55_elephant_10_n02504013_407.png
barlow_twins,1,812,NaN,chair,bird,3,0812_hp_dnn_3_bird_10_n02037110_32120.png
barlow_twins,1,813,NaN,elephant,clock,1,0813_hp_dnn_1_clock_10_n03196217_5079.png
barlow_twins,1,814,NaN,oven,bird,inf,0814_hp_dnn_inf_bird_10_n01820546_6625.png
barlow_twins,1,815,NaN,elephant,cat,0.7,0815_hp_dnn_0.7_cat_10_n02123597_22264.png
barlow_twins,1,816,NaN,elephant,elephant,1,0816_hp_dnn_1_elephant_10_n02504458_6248.png
barlow_twins,1,817,NaN,knife,knife,0.7,0817_hp_dnn_0.7_knife_10_n03041632_91582.png
barlow_twins,1,818,NaN,oven,bottle,1.5,0818_hp_dnn_1.5_bottle_10_n04579145_1174.png
barlow_twins,1,819,NaN,elephant,car,0.4,0819_hp_dnn_0.4_car_10_n03100240_6836.png
barlow_twins,1,820,NaN,elephant,truck,1.5,0820_hp_dnn_1.5_truck_10_n03417042_1770.png
barlow_twins,1,821,NaN,elephant,cat,0.55,0821_hp_dnn_0.55_cat_10_n02125311_22122.png
barlow_twins,1,822,NaN,keyboard,keyboard,1.5,0822_hp_dnn_1.5_keyboard_10_n03085013_23583.png
barlow_twins,1,823,NaN,knife,bottle,inf,0823_hp_dnn_inf_bottle_10_n03983396_4996.png
barlow_twins,1,824,NaN,oven,bird,3,0824_hp_dnn_3_bird_10_n01828970_15425.png
barlow_twins,1,825,NaN,keyboard,truck,inf,0825_hp_dnn_inf_truck_10_n03417042_8518.png
barlow_twins,1,826,NaN,car,boat,inf,0826_hp_dnn_inf_boat_10_n03662601_4295.png
barlow_twins,1,827,NaN,knife,keyboard,0.7,0827_hp_dnn_0.7_keyboard_10_n04505470_4569.png
barlow_twins,1,828,NaN,truck,airplane,0.7,0828_hp_dnn_0.7_airplane_10_n02690373_6328.png
barlow_twins,1,829,NaN,airplane,cat,0.55,0829_hp_dnn_0.55_cat_10_n02123045_5080.png
barlow_twins,1,830,NaN,oven,oven,3,0830_hp_dnn_3_oven_10_n04111531_4826.png
barlow_twins,1,831,NaN,knife,oven,0.7,0831_hp_dnn_0.7_oven_10_n04111531_8688.png
barlow_twins,1,832,NaN,elephant,bear,1,0832_hp_dnn_1_bear_10_n02134084_3795.png
barlow_twins,1,833,NaN,oven,clock,0.55,0833_hp_dnn_0.55_clock_10_n02708093_5236.png
barlow_twins,1,834,NaN,knife,keyboard,inf,0834_hp_dnn_inf_keyboard_10_n04505470_4138.png
barlow_twins,1,835,NaN,keyboard,keyboard,0.4,0835_hp_dnn_0.4_keyboard_10_n03085013_20923.png
barlow_twins,1,836,NaN,truck,oven,0.55,0836_hp_dnn_0.55_oven_10_n04111531_3082.png
barlow_twins,1,837,NaN,keyboard,airplane,0.7,0837_hp_dnn_0.7_airplane_10_n02690373_6739.png
barlow_twins,1,838,NaN,oven,dog,3,0838_hp_dnn_3_dog_10_n02098286_4467.png
barlow_twins,1,839,NaN,elephant,oven,0.4,0839_hp_dnn_0.4_oven_10_n04111531_1330.png
barlow_twins,1,840,NaN,oven,chair,0.7,0840_hp_dnn_0.7_chair_10_n03376595_11839.png
barlow_twins,1,841,NaN,elephant,dog,1,0841_hp_dnn_1_dog_10_n02088238_2234.png
barlow_twins,1,842,NaN,oven,knife,3,0842_hp_dnn_3_knife_10_n03041632_31363.png
barlow_twins,1,843,NaN,car,clock,inf,0843_hp_dnn_inf_clock_10_n02708093_6918.png
barlow_twins,1,844,NaN,oven,bottle,inf,0844_hp_dnn_inf_bottle_10_n04557648_91.png
barlow_twins,1,845,NaN,knife,car,3,0845_hp_dnn_3_car_10_n03100240_1879.png
barlow_twins,1,846,NaN,knife,clock,inf,0846_hp_dnn_inf_clock_10_n04548280_7930.png
barlow_twins,1,847,NaN,oven,bird,3,0847_hp_dnn_3_bird_10_n01560419_1738.png
barlow_twins,1,848,NaN,elephant,bicycle,1.5,0848_hp_dnn_1.5_bicycle_10_n02835271_1874.png
barlow_twins,1,849,NaN,elephant,car,0.45,0849_hp_dnn_0.45_car_10_n03100240_12361.png
barlow_twins,1,850,NaN,elephant,bicycle,0.7,0850_hp_dnn_0.7_bicycle_10_n02835271_31150.png
barlow_twins,1,851,NaN,knife,bottle,inf,0851_hp_dnn_inf_bottle_10_n02823428_4245.png
barlow_twins,1,852,NaN,elephant,car,0.45,0852_hp_dnn_0.45_car_10_n03100240_1856.png
barlow_twins,1,853,NaN,bottle,keyboard,1.5,0853_hp_dnn_1.5_keyboard_10_n03085013_26556.png
barlow_twins,1,854,NaN,airplane,elephant,0.45,0854_hp_dnn_0.45_elephant_10_n02504458_4137.png
barlow_twins,1,855,NaN,oven,cat,inf,0855_hp_dnn_inf_cat_10_n02123045_12659.png
barlow_twins,1,856,NaN,elephant,boat,0.45,0856_hp_dnn_0.45_boat_10_n03662601_14982.png
barlow_twins,1,857,NaN,oven,airplane,1,0857_hp_dnn_1_airplane_10_n02690373_10210.png
barlow_twins,1,858,NaN,oven,airplane,0.45,0858_hp_dnn_0.45_airplane_10_n02690373_18871.png
barlow_twins,1,859,NaN,truck,chair,3,0859_hp_dnn_3_chair_10_n04429376_22344.png
barlow_twins,1,860,NaN,oven,bear,inf,0860_hp_dnn_inf_bear_10_n02134084_24136.png
barlow_twins,1,861,NaN,keyboard,bicycle,1.5,0861_hp_dnn_1.5_bicycle_10_n03792782_11945.png
barlow_twins,1,862,NaN,elephant,bottle,0.45,0862_hp_dnn_0.45_bottle_10_n04591713_2581.png
barlow_twins,1,863,NaN,truck,airplane,0.45,0863_hp_dnn_0.45_airplane_10_n02690373_2692.png
barlow_twins,1,864,NaN,elephant,boat,0.4,0864_hp_dnn_0.4_boat_10_n04273569_3978.png
barlow_twins,1,865,NaN,elephant,truck,0.4,0865_hp_dnn_0.4_truck_10_n03796401_4423.png
barlow_twins,1,866,NaN,elephant,bird,0.4,0866_hp_dnn_0.4_bird_10_n02002556_121.png
barlow_twins,1,867,NaN,keyboard,keyboard,1,0867_hp_dnn_1_keyboard_10_n03085013_24115.png
barlow_twins,1,868,NaN,knife,bird,0.55,0868_hp_dnn_0.55_bird_10_n02033041_2082.png
barlow_twins,1,869,NaN,elephant,car,0.45,0869_hp_dnn_0.45_car_10_n04285008_3911.png
barlow_twins,1,870,NaN,airplane,bottle,0.4,0870_hp_dnn_0.4_bottle_10_n02823428_11.png
barlow_twins,1,871,NaN,knife,knife,inf,0871_hp_dnn_inf_knife_10_n03041632_46422.png
barlow_twins,1,872,NaN,keyboard,oven,0.7,0872_hp_dnn_0.7_oven_10_n04111531_9838.png
barlow_twins,1,873,NaN,oven,airplane,3,0873_hp_dnn_3_airplane_10_n02690373_3860.png
barlow_twins,1,874,NaN,elephant,bicycle,0.7,0874_hp_dnn_0.7_bicycle_10_n02835271_12666.png
barlow_twins,1,875,NaN,knife,airplane,inf,0875_hp_dnn_inf_airplane_10_n02690373_15411.png
barlow_twins,1,876,NaN,elephant,bicycle,0.7,0876_hp_dnn_0.7_bicycle_10_n02835271_4677.png
barlow_twins,1,877,NaN,cat,bird,1,0877_hp_dnn_1_bird_10_n02025239_1443.png
barlow_twins,1,878,NaN,truck,bicycle,3,0878_hp_dnn_3_bicycle_10_n03792782_6152.png
barlow_twins,1,879,NaN,bottle,truck,3,0879_hp_dnn_3_truck_10_n03417042_3748.png
barlow_twins,1,880,NaN,oven,car,1.5,0880_hp_dnn_1.5_car_10_n03100240_17028.png
barlow_twins,1,881,NaN,elephant,bicycle,0.7,0881_hp_dnn_0.7_bicycle_10_n03792782_10655.png
barlow_twins,1,882,NaN,oven,oven,1.5,0882_hp_dnn_1.5_oven_10_n04111531_1830.png
barlow_twins,1,883,NaN,elephant,truck,0.45,0883_hp_dnn_0.45_truck_10_n03417042_2315.png
barlow_twins,1,884,NaN,elephant,oven,0.4,0884_hp_dnn_0.4_oven_10_n04111531_15569.png
barlow_twins,1,885,NaN,oven,cat,0.55,0885_hp_dnn_0.55_cat_10_n02123394_3607.png
barlow_twins,1,886,NaN,elephant,airplane,0.4,0886_hp_dnn_0.4_airplane_10_n02690373_191.png
barlow_twins,1,887,NaN,elephant,chair,0.7,0887_hp_dnn_0.7_chair_10_n04099969_16512.png
barlow_twins,1,888,NaN,truck,truck,3,0888_hp_dnn_3_truck_10_n03417042_4614.png
barlow_twins,1,889,NaN,knife,airplane,3,0889_hp_dnn_3_airplane_10_n02690373_3153.png
barlow_twins,1,890,NaN,knife,boat,3,0890_hp_dnn_3_boat_10_n03662601_2197.png
barlow_twins,1,891,NaN,knife,car,1.5,0891_hp_dnn_1.5_car_10_n02814533_4501.png
barlow_twins,1,892,NaN,oven,knife,3,0892_hp_dnn_3_knife_10_n03041632_18468.png
barlow_twins,1,893,NaN,elephant,oven,0.7,0893_hp_dnn_0.7_oven_10_n04111531_8117.png
barlow_twins,1,894,NaN,oven,bottle,inf,0894_hp_dnn_inf_bottle_10_n04560804_16526.png
barlow_twins,1,895,NaN,car,boat,3,0895_hp_dnn_3_boat_10_n03662601_34042.png
barlow_twins,1,896,NaN,truck,airplane,0.55,0896_hp_dnn_0.55_airplane_10_n02690373_1663.png
barlow_twins,1,897,NaN,elephant,truck,0.45,0897_hp_dnn_0.45_truck_10_n03417042_5809.png
barlow_twins,1,898,NaN,elephant,knife,0.55,0898_hp_dnn_0.55_knife_10_n03041632_5302.png
barlow_twins,1,899,NaN,elephant,oven,0.55,0899_hp_dnn_0.55_oven_10_n04111531_3977.png
barlow_twins,1,900,NaN,oven,chair,inf,0900_hp_dnn_inf_chair_10_n03376595_9165.png
barlow_twins,1,901,NaN,car,car,inf,0901_hp_dnn_inf_car_10_n04285008_8921.png
barlow_twins,1,902,NaN,elephant,bicycle,0.4,0902_hp_dnn_0.4_bicycle_10_n02835271_9280.png
barlow_twins,1,903,NaN,airplane,clock,0.4,0903_hp_dnn_0.4_clock_10_n02708093_3743.png
barlow_twins,1,904,NaN,chair,boat,0.55,0904_hp_dnn_0.55_boat_10_n04273569_18089.png
barlow_twins,1,905,NaN,elephant,truck,0.45,0905_hp_dnn_0.45_truck_10_n03417042_2603.png
barlow_twins,1,906,NaN,elephant,keyboard,0.45,0906_hp_dnn_0.45_keyboard_10_n03085013_5622.png
barlow_twins,1,907,NaN,elephant,truck,0.55,0907_hp_dnn_0.55_truck_10_n04467665_22585.png
barlow_twins,1,908,NaN,truck,bird,1,0908_hp_dnn_1_bird_10_n01560419_3160.png
barlow_twins,1,909,NaN,clock,knife,1.5,0909_hp_dnn_1.5_knife_10_n03041632_13518.png
barlow_twins,1,910,NaN,elephant,dog,0.45,0910_hp_dnn_0.45_dog_10_n02099712_1184.png
barlow_twins,1,911,NaN,elephant,bicycle,0.4,0911_hp_dnn_0.4_bicycle_10_n02835271_1918.png
barlow_twins,1,912,NaN,elephant,car,0.4,0912_hp_dnn_0.4_car_10_n02814533_87793.png
barlow_twins,1,913,NaN,airplane,bear,0.7,0913_hp_dnn_0.7_bear_10_n02133161_4161.png
barlow_twins,1,914,NaN,bottle,bird,0.7,0914_hp_dnn_0.7_bird_10_n02009229_851.png
barlow_twins,1,915,NaN,bottle,bicycle,inf,0915_hp_dnn_inf_bicycle_10_n02835271_1299.png
barlow_twins,1,916,NaN,oven,truck,3,0916_hp_dnn_3_truck_10_n03796401_7487.png
barlow_twins,1,917,NaN,elephant,airplane,0.45,0917_hp_dnn_0.45_airplane_10_n02690373_1547.png
barlow_twins,1,918,NaN,chair,boat,0.55,0918_hp_dnn_0.55_boat_10_n04273569_29711.png
barlow_twins,1,919,NaN,elephant,oven,1,0919_hp_dnn_1_oven_10_n04111531_2458.png
barlow_twins,1,920,NaN,chair,knife,1.5,0920_hp_dnn_1.5_knife_10_n03041632_1201.png
barlow_twins,1,921,NaN,clock,oven,3,0921_hp_dnn_3_oven_10_n04111531_2042.png
barlow_twins,1,922,NaN,oven,clock,1,0922_hp_dnn_1_clock_10_n04548280_8668.png
barlow_twins,1,923,NaN,airplane,cat,0.7,0923_hp_dnn_0.7_cat_10_n02123159_7161.png
barlow_twins,1,924,NaN,oven,airplane,0.7,0924_hp_dnn_0.7_airplane_10_n02690373_3313.png
barlow_twins,1,925,NaN,elephant,elephant,0.45,0925_hp_dnn_0.45_elephant_10_n02504458_6472.png
barlow_twins,1,926,NaN,truck,dog,1.5,0926_hp_dnn_1.5_dog_10_n02110063_11495.png
barlow_twins,1,927,NaN,elephant,boat,0.55,0927_hp_dnn_0.55_boat_10_n03344393_4502.png
barlow_twins,1,928,NaN,clock,chair,1.5,0928_hp_dnn_1.5_chair_10_n03376595_2646.png
barlow_twins,1,929,NaN,elephant,chair,1,0929_hp_dnn_1_chair_10_n04099969_1040.png
barlow_twins,1,930,NaN,airplane,bottle,0.45,0930_hp_dnn_0.45_bottle_10_n04557648_413.png
barlow_twins,1,931,NaN,knife,oven,3,0931_hp_dnn_3_oven_10_n04111531_2066.png
barlow_twins,1,932,NaN,clock,bicycle,1.5,0932_hp_dnn_1.5_bicycle_10_n03792782_66837.png
barlow_twins,1,933,NaN,elephant,bottle,0.45,0933_hp_dnn_0.45_bottle_10_n04591713_475.png
barlow_twins,1,934,NaN,keyboard,boat,1.5,0934_hp_dnn_1.5_boat_10_n02951358_30635.png
barlow_twins,1,935,NaN,elephant,chair,1.5,0935_hp_dnn_1.5_chair_10_n02791124_2825.png
barlow_twins,1,936,NaN,airplane,elephant,inf,0936_hp_dnn_inf_elephant_10_n02504013_5839.png
barlow_twins,1,937,NaN,keyboard,clock,1.5,0937_hp_dnn_1.5_clock_10_n04548280_5843.png
barlow_twins,1,938,NaN,elephant,car,0.45,0938_hp_dnn_0.45_car_10_n04285008_12457.png
barlow_twins,1,939,NaN,oven,bottle,1.5,0939_hp_dnn_1.5_bottle_10_n03983396_12916.png
barlow_twins,1,940,NaN,oven,oven,inf,0940_hp_dnn_inf_oven_10_n04111531_8959.png
barlow_twins,1,941,NaN,elephant,dog,0.4,0941_hp_dnn_0.4_dog_10_n02107908_10107.png
barlow_twins,1,942,NaN,oven,oven,3,0942_hp_dnn_3_oven_10_n04111531_1313.png
barlow_twins,1,943,NaN,elephant,bear,0.55,0943_hp_dnn_0.55_bear_10_n02133161_489.png
barlow_twins,1,944,NaN,knife,knife,0.7,0944_hp_dnn_0.7_knife_10_n03041632_39739.png
barlow_twins,1,945,NaN,elephant,knife,0.45,0945_hp_dnn_0.45_knife_10_n03041632_26933.png
barlow_twins,1,946,NaN,airplane,bear,3,0946_hp_dnn_3_bear_10_n02132136_17524.png
barlow_twins,1,947,NaN,elephant,keyboard,0.45,0947_hp_dnn_0.45_keyboard_10_n03085013_11399.png
barlow_twins,1,948,NaN,clock,boat,inf,0948_hp_dnn_inf_boat_10_n04273569_3409.png
barlow_twins,1,949,NaN,elephant,dog,0.45,0949_hp_dnn_0.45_dog_10_n02111500_2111.png
barlow_twins,1,950,NaN,elephant,chair,0.45,0950_hp_dnn_0.45_chair_10_n03376595_9851.png
barlow_twins,1,951,NaN,elephant,bear,0.55,0951_hp_dnn_0.55_bear_10_n02134084_1949.png
barlow_twins,1,952,NaN,elephant,airplane,0.4,0952_hp_dnn_0.4_airplane_10_n02690373_7055.png
barlow_twins,1,953,NaN,bottle,clock,0.7,0953_hp_dnn_0.7_clock_10_n03196217_219.png
barlow_twins,1,954,NaN,elephant,knife,0.4,0954_hp_dnn_0.4_knife_10_n03041632_32197.png
barlow_twins,1,955,NaN,elephant,dog,1,0955_hp_dnn_1_dog_10_n02105162_1601.png
barlow_twins,1,956,NaN,keyboard,cat,inf,0956_hp_dnn_inf_cat_10_n02125311_1746.png
barlow_twins,1,957,NaN,chair,knife,0.45,0957_hp_dnn_0.45_knife_10_n03041632_56172.png
barlow_twins,1,958,NaN,elephant,airplane,0.4,0958_hp_dnn_0.4_airplane_10_n02690373_17718.png
barlow_twins,1,959,NaN,truck,bird,0.45,0959_hp_dnn_0.45_bird_10_n01855032_4295.png
barlow_twins,1,960,NaN,oven,car,0.55,0960_hp_dnn_0.55_car_10_n02814533_6178.png
barlow_twins,1,961,NaN,oven,knife,0.45,0961_hp_dnn_0.45_knife_10_n03041632_4443.png
barlow_twins,1,962,NaN,elephant,cat,1.5,0962_hp_dnn_1.5_cat_10_n02125311_4034.png
barlow_twins,1,963,NaN,keyboard,clock,0.7,0963_hp_dnn_0.7_clock_10_n02708093_7821.png
barlow_twins,1,964,NaN,keyboard,truck,inf,0964_hp_dnn_inf_truck_10_n04467665_55193.png
barlow_twins,1,965,NaN,oven,cat,1.5,0965_hp_dnn_1.5_cat_10_n02123394_3813.png
barlow_twins,1,966,NaN,airplane,cat,0.55,0966_hp_dnn_0.55_cat_10_n02123159_5429.png
barlow_twins,1,967,NaN,bottle,cat,1.5,0967_hp_dnn_1.5_cat_10_n02123045_12040.png
barlow_twins,1,968,NaN,elephant,chair,1,0968_hp_dnn_1_chair_10_n02791124_2689.png
barlow_twins,1,969,NaN,knife,bird,1,0969_hp_dnn_1_bird_10_n01860187_1191.png
barlow_twins,1,970,NaN,keyboard,truck,3,0970_hp_dnn_3_truck_10_n03417042_3821.png
barlow_twins,1,971,NaN,truck,dog,0.4,0971_hp_dnn_0.4_dog_10_n02112350_279.png
barlow_twins,1,972,NaN,elephant,cat,0.55,0972_hp_dnn_0.55_cat_10_n02123159_8240.png
barlow_twins,1,973,NaN,oven,clock,1.5,0973_hp_dnn_1.5_clock_10_n04548280_6122.png
barlow_twins,1,974,NaN,knife,car,1,0974_hp_dnn_1_car_10_n04285008_9452.png
barlow_twins,1,975,NaN,oven,truck,inf,0975_hp_dnn_inf_truck_10_n04467665_33086.png
barlow_twins,1,976,NaN,truck,elephant,1,0976_hp_dnn_1_elephant_10_n02504458_6301.png
barlow_twins,1,977,NaN,truck,boat,0.55,0977_hp_dnn_0.55_boat_10_n03344393_4349.png
barlow_twins,1,978,NaN,elephant,boat,0.7,0978_hp_dnn_0.7_boat_10_n03344393_3345.png
barlow_twins,1,979,NaN,oven,bear,inf,0979_hp_dnn_inf_bear_10_n02133161_4580.png
barlow_twins,1,980,NaN,oven,cat,1,0980_hp_dnn_1_cat_10_n02123159_4376.png
barlow_twins,1,981,NaN,elephant,clock,0.45,0981_hp_dnn_0.45_clock_10_n04548280_2399.png
barlow_twins,1,982,NaN,car,bicycle,inf,0982_hp_dnn_inf_bicycle_10_n03792782_6512.png
barlow_twins,1,983,NaN,airplane,knife,1,0983_hp_dnn_1_knife_10_n03041632_12707.png
barlow_twins,1,984,NaN,oven,bottle,1,0984_hp_dnn_1_bottle_10_n04591713_1649.png
barlow_twins,1,985,NaN,truck,boat,1.5,0985_hp_dnn_1.5_boat_10_n02951358_2813.png
barlow_twins,1,986,NaN,elephant,boat,0.55,0986_hp_dnn_0.55_boat_10_n02951358_9884.png
barlow_twins,1,987,NaN,oven,boat,0.7,0987_hp_dnn_0.7_boat_10_n03344393_2941.png
barlow_twins,1,988,NaN,oven,cat,0.45,0988_hp_dnn_0.45_cat_10_n02125311_20316.png
barlow_twins,1,989,NaN,elephant,cat,3,0989_hp_dnn_3_cat_10_n02124075_7144.png
barlow_twins,1,990,NaN,oven,cat,3,0990_hp_dnn_3_cat_10_n02124075_14326.png
barlow_twins,1,991,NaN,oven,car,0.7,0991_hp_dnn_0.7_car_10_n02814533_62413.png
barlow_twins,1,992,NaN,knife,keyboard,3,0992_hp_dnn_3_keyboard_10_n03085013_20186.png
barlow_twins,1,993,NaN,elephant,chair,0.4,0993_hp_dnn_0.4_chair_10_n03376595_7699.png
barlow_twins,1,994,NaN,oven,dog,3,0994_hp_dnn_3_dog_10_n02100735_8835.png
barlow_twins,1,995,NaN,knife,knife,inf,0995_hp_dnn_inf_knife_10_n03041632_23736.png
barlow_twins,1,996,NaN,truck,truck,3,0996_hp_dnn_3_truck_10_n03417042_411.png
barlow_twins,1,997,NaN,elephant,bicycle,1,0997_hp_dnn_1_bicycle_10_n02835271_6906.png
barlow_twins,1,998,NaN,elephant,bear,0.7,0998_hp_dnn_0.7_bear_10_n02134084_1867.png
barlow_twins,1,999,NaN,elephant,bottle,0.55,0999_hp_dnn_0.55_bottle_10_n02823428_1078.png
barlow_twins,1,1000,NaN,oven,truck,0.55,1000_hp_dnn_0.55_truck_10_n03796401_21954.png
barlow_twins,1,1001,NaN,airplane,cat,0.45,1001_hp_dnn_0.45_cat_10_n02123394_2084.png
barlow_twins,1,1002,NaN,bottle,airplane,1.5,1002_hp_dnn_1.5_airplane_10_n02690373_787.png
barlow_twins,1,1003,NaN,oven,airplane,1.5,1003_hp_dnn_1.5_airplane_10_n02690373_4148.png
barlow_twins,1,1004,NaN,elephant,chair,0.7,1004_hp_dnn_0.7_chair_10_n04429376_30610.png
barlow_twins,1,1005,NaN,knife,keyboard,1,1005_hp_dnn_1_keyboard_10_n04505470_7421.png
barlow_twins,1,1006,NaN,keyboard,bird,1.5,1006_hp_dnn_1.5_bird_10_n02013706_848.png
barlow_twins,1,1007,NaN,oven,bird,1.5,1007_hp_dnn_1.5_bird_10_n01828970_9006.png
barlow_twins,1,1008,NaN,truck,oven,0.4,1008_hp_dnn_0.4_oven_10_n04111531_669.png
barlow_twins,1,1009,NaN,elephant,bird,0.55,1009_hp_dnn_0.55_bird_10_n02006656_11566.png
barlow_twins,1,1010,NaN,elephant,elephant,0.4,1010_hp_dnn_0.4_elephant_10_n02504013_3979.png
barlow_twins,1,1011,NaN,elephant,keyboard,0.7,1011_hp_dnn_0.7_keyboard_10_n04505470_4966.png
barlow_twins,1,1012,NaN,truck,bottle,0.45,1012_hp_dnn_0.45_bottle_10_n03937543_2327.png
barlow_twins,1,1013,NaN,elephant,elephant,0.7,1013_hp_dnn_0.7_elephant_10_n02504013_10331.png
barlow_twins,1,1014,NaN,elephant,elephant,1.5,1014_hp_dnn_1.5_elephant_10_n02504013_701.png
barlow_twins,1,1015,NaN,elephant,bird,0.4,1015_hp_dnn_0.4_bird_10_n01829413_5849.png
barlow_twins,1,1016,NaN,airplane,bear,inf,1016_hp_dnn_inf_bear_10_n02134084_3695.png
barlow_twins,1,1017,NaN,elephant,cat,1.5,1017_hp_dnn_1.5_cat_10_n02123045_6144.png
barlow_twins,1,1018,NaN,truck,airplane,0.7,1018_hp_dnn_0.7_airplane_10_n02690373_18506.png
barlow_twins,1,1019,NaN,oven,clock,1.5,1019_hp_dnn_1.5_clock_10_n02708093_3750.png
barlow_twins,1,1020,NaN,airplane,airplane,0.45,1020_hp_dnn_0.45_airplane_10_n02690373_111.png
barlow_twins,1,1021,NaN,oven,oven,3,1021_hp_dnn_3_oven_10_n04111531_7298.png
barlow_twins,1,1022,NaN,airplane,clock,inf,1022_hp_dnn_inf_clock_10_n03196217_1550.png
barlow_twins,1,1023,NaN,elephant,chair,1,1023_hp_dnn_1_chair_10_n04429376_2349.png
barlow_twins,1,1024,NaN,elephant,airplane,1,1024_hp_dnn_1_airplane_10_n02690373_1167.png
barlow_twins,1,1025,NaN,elephant,elephant,0.7,1025_hp_dnn_0.7_elephant_10_n02504458_5308.png
barlow_twins,1,1026,NaN,elephant,bear,1,1026_hp_dnn_1_bear_10_n02132136_10559.png
barlow_twins,1,1027,NaN,oven,clock,0.7,1027_hp_dnn_0.7_clock_10_n04548280_5038.png
barlow_twins,1,1028,NaN,elephant,car,0.4,1028_hp_dnn_0.4_car_10_n03100240_8885.png
barlow_twins,1,1029,NaN,elephant,bicycle,1,1029_hp_dnn_1_bicycle_10_n02835271_17509.png
barlow_twins,1,1030,NaN,elephant,clock,0.7,1030_hp_dnn_0.7_clock_10_n02708093_3301.png
barlow_twins,1,1031,NaN,chair,bear,1.5,1031_hp_dnn_1.5_bear_10_n02134084_12917.png
barlow_twins,1,1032,NaN,keyboard,bear,1.5,1032_hp_dnn_1.5_bear_10_n02133161_13077.png
barlow_twins,1,1033,NaN,bottle,bear,3,1033_hp_dnn_3_bear_10_n02132136_15681.png
barlow_twins,1,1034,NaN,oven,clock,3,1034_hp_dnn_3_clock_10_n04548280_5013.png
barlow_twins,1,1035,NaN,elephant,dog,1,1035_hp_dnn_1_dog_10_n02091032_8024.png
barlow_twins,1,1036,NaN,keyboard,bottle,inf,1036_hp_dnn_inf_bottle_10_n04591713_2052.png
barlow_twins,1,1037,NaN,elephant,clock,0.55,1037_hp_dnn_0.55_clock_10_n03196217_8072.png
barlow_twins,1,1038,NaN,oven,car,3,1038_hp_dnn_3_car_10_n02814533_10135.png
barlow_twins,1,1039,NaN,bear,car,1,1039_hp_dnn_1_car_10_n02814533_5183.png
barlow_twins,1,1040,NaN,knife,bird,0.7,1040_hp_dnn_0.7_bird_10_n01855032_3713.png
barlow_twins,1,1041,NaN,keyboard,car,3,1041_hp_dnn_3_car_10_n03100240_5796.png
barlow_twins,1,1042,NaN,elephant,keyboard,0.7,1042_hp_dnn_0.7_keyboard_10_n03085013_25800.png
barlow_twins,1,1043,NaN,keyboard,oven,1.5,1043_hp_dnn_1.5_oven_10_n04111531_8344.png
barlow_twins,1,1044,NaN,elephant,bottle,1,1044_hp_dnn_1_bottle_10_n03983396_2054.png
barlow_twins,1,1045,NaN,knife,elephant,3,1045_hp_dnn_3_elephant_10_n02504013_6742.png
barlow_twins,1,1046,NaN,elephant,knife,0.7,1046_hp_dnn_0.7_knife_10_n03041632_24461.png
barlow_twins,1,1047,NaN,elephant,bicycle,0.45,1047_hp_dnn_0.45_bicycle_10_n02835271_4682.png
barlow_twins,1,1048,NaN,elephant,car,0.4,1048_hp_dnn_0.4_car_10_n03100240_20489.png
barlow_twins,1,1049,NaN,elephant,bicycle,0.55,1049_hp_dnn_0.55_bicycle_10_n03792782_10876.png
barlow_twins,1,1050,NaN,oven,oven,inf,1050_hp_dnn_inf_oven_10_n04111531_13456.png
barlow_twins,1,1051,NaN,oven,clock,0.55,1051_hp_dnn_0.55_clock_10_n03196217_1454.png
barlow_twins,1,1052,NaN,airplane,bird,0.45,1052_hp_dnn_0.45_bird_10_n01797886_3046.png
barlow_twins,1,1053,NaN,oven,oven,1,1053_hp_dnn_1_oven_10_n04111531_15943.png
barlow_twins,1,1054,NaN,elephant,bottle,0.55,1054_hp_dnn_0.55_bottle_10_n04560804_13142.png
barlow_twins,1,1055,NaN,truck,elephant,1.5,1055_hp_dnn_1.5_elephant_10_n02504013_4560.png
barlow_twins,1,1056,NaN,knife,keyboard,0.55,1056_hp_dnn_0.55_keyboard_10_n03085013_10035.png
barlow_twins,1,1057,NaN,elephant,truck,0.7,1057_hp_dnn_0.7_truck_10_n03796401_7199.png
barlow_twins,1,1058,NaN,elephant,bottle,1,1058_hp_dnn_1_bottle_10_n04560804_15923.png
barlow_twins,1,1059,NaN,oven,keyboard,0.55,1059_hp_dnn_0.55_keyboard_10_n03085013_24156.png
barlow_twins,1,1060,NaN,elephant,dog,0.55,1060_hp_dnn_0.55_dog_10_n02107574_1533.png
barlow_twins,1,1061,NaN,keyboard,airplane,0.45,1061_hp_dnn_0.45_airplane_10_n02690373_863.png
barlow_twins,1,1062,NaN,truck,bottle,0.55,1062_hp_dnn_0.55_bottle_10_n03983396_1904.png
barlow_twins,1,1063,NaN,elephant,truck,1,1063_hp_dnn_1_truck_10_n03417042_19481.png
barlow_twins,1,1064,NaN,elephant,dog,1.5,1064_hp_dnn_1.5_dog_10_n02100236_1502.png
barlow_twins,1,1065,NaN,bicycle,knife,inf,1065_hp_dnn_inf_knife_10_n03041632_96714.png
barlow_twins,1,1066,NaN,elephant,car,1,1066_hp_dnn_1_car_10_n04285008_6200.png
barlow_twins,1,1067,NaN,elephant,truck,0.4,1067_hp_dnn_0.4_truck_10_n03417042_10150.png
barlow_twins,1,1068,NaN,truck,boat,0.45,1068_hp_dnn_0.45_boat_10_n03344393_2434.png
barlow_twins,1,1069,NaN,chair,cat,0.4,1069_hp_dnn_0.4_cat_10_n02123394_4662.png
barlow_twins,1,1070,NaN,knife,car,1,1070_hp_dnn_1_car_10_n03100240_17505.png
barlow_twins,1,1071,NaN,elephant,bear,0.7,1071_hp_dnn_0.7_bear_10_n02132136_3441.png
barlow_twins,1,1072,NaN,clock,oven,3,1072_hp_dnn_3_oven_10_n04111531_9342.png
barlow_twins,1,1073,NaN,elephant,oven,1.5,1073_hp_dnn_1.5_oven_10_n04111531_20407.png
barlow_twins,1,1074,NaN,elephant,bottle,0.55,1074_hp_dnn_0.55_bottle_10_n04557648_7646.png
barlow_twins,1,1075,NaN,airplane,clock,3,1075_hp_dnn_3_clock_10_n02708093_3043.png
barlow_twins,1,1076,NaN,knife,airplane,inf,1076_hp_dnn_inf_airplane_10_n02690373_9535.png
barlow_twins,1,1077,NaN,elephant,car,0.55,1077_hp_dnn_0.55_car_10_n03100240_15228.png
barlow_twins,1,1078,NaN,elephant,car,0.4,1078_hp_dnn_0.4_car_10_n04285008_771.png
barlow_twins,1,1079,NaN,elephant,airplane,0.55,1079_hp_dnn_0.55_airplane_10_n02690373_7591.png
barlow_twins,1,1080,NaN,elephant,bottle,1.5,1080_hp_dnn_1.5_bottle_10_n04560804_13232.png
barlow_twins,1,1081,NaN,elephant,cat,0.4,1081_hp_dnn_0.4_cat_10_n02123597_1825.png
barlow_twins,1,1082,NaN,elephant,bird,1,1082_hp_dnn_1_bird_10_n01558993_12930.png
barlow_twins,1,1083,NaN,elephant,airplane,0.4,1083_hp_dnn_0.4_airplane_10_n02690373_5475.png
barlow_twins,1,1084,NaN,oven,boat,0.7,1084_hp_dnn_0.7_boat_10_n03344393_7179.png
barlow_twins,1,1085,NaN,elephant,bird,1,1085_hp_dnn_1_bird_10_n02056570_9458.png
barlow_twins,1,1086,NaN,elephant,elephant,0.55,1086_hp_dnn_0.55_elephant_10_n02504013_1740.png
barlow_twins,1,1087,NaN,airplane,oven,inf,1087_hp_dnn_inf_oven_10_n04111531_6454.png
barlow_twins,1,1088,NaN,elephant,truck,0.45,1088_hp_dnn_0.45_truck_10_n04467665_20933.png
barlow_twins,1,1089,NaN,bottle,bicycle,inf,1089_hp_dnn_inf_bicycle_10_n03792782_47694.png
barlow_twins,1,1090,NaN,elephant,truck,1,1090_hp_dnn_1_truck_10_n04467665_47602.png
barlow_twins,1,1091,NaN,elephant,bird,0.55,1091_hp_dnn_0.55_bird_10_n01824575_328.png
barlow_twins,1,1092,NaN,elephant,chair,1.5,1092_hp_dnn_1.5_chair_10_n04099969_11279.png
barlow_twins,1,1093,NaN,elephant,truck,0.4,1093_hp_dnn_0.4_truck_10_n03417042_8334.png
barlow_twins,1,1094,NaN,chair,cat,1,1094_hp_dnn_1_cat_10_n02123159_2107.png
barlow_twins,1,1095,NaN,airplane,bear,1,1095_hp_dnn_1_bear_10_n02132136_9184.png
barlow_twins,1,1096,NaN,elephant,elephant,0.45,1096_hp_dnn_0.45_elephant_10_n02504013_4392.png
barlow_twins,1,1097,NaN,elephant,dog,0.55,1097_hp_dnn_0.55_dog_10_n02109525_13146.png
barlow_twins,1,1098,NaN,oven,oven,0.45,1098_hp_dnn_0.45_oven_10_n04111531_12129.png
barlow_twins,1,1099,NaN,elephant,boat,0.4,1099_hp_dnn_0.4_boat_10_n03662601_21543.png
barlow_twins,1,1100,NaN,knife,cat,inf,1100_hp_dnn_inf_cat_10_n02124075_8754.png
barlow_twins,1,1101,NaN,elephant,bottle,0.7,1101_hp_dnn_0.7_bottle_10_n03937543_5166.png
barlow_twins,1,1102,NaN,airplane,cat,0.7,1102_hp_dnn_0.7_cat_10_n02123159_5993.png
barlow_twins,1,1103,NaN,knife,dog,inf,1103_hp_dnn_inf_dog_10_n02099601_5760.png
barlow_twins,1,1104,NaN,elephant,clock,0.4,1104_hp_dnn_0.4_clock_10_n03196217_5365.png
barlow_twins,1,1105,NaN,chair,knife,3,1105_hp_dnn_3_knife_10_n03041632_24646.png
barlow_twins,1,1106,NaN,knife,keyboard,3,1106_hp_dnn_3_keyboard_10_n04505470_10076.png
barlow_twins,1,1107,NaN,airplane,bear,0.55,1107_hp_dnn_0.55_bear_10_n02132136_20826.png
barlow_twins,1,1108,NaN,knife,airplane,inf,1108_hp_dnn_inf_airplane_10_n02690373_5797.png
barlow_twins,1,1109,NaN,knife,car,inf,1109_hp_dnn_inf_car_10_n04285008_5838.png
barlow_twins,1,1110,NaN,elephant,bottle,3,1110_hp_dnn_3_bottle_10_n04591713_7374.png
barlow_twins,1,1111,NaN,elephant,knife,0.45,1111_hp_dnn_0.45_knife_10_n03041632_40652.png
barlow_twins,1,1112,NaN,bottle,car,inf,1112_hp_dnn_inf_car_10_n03100240_2477.png
barlow_twins,1,1113,NaN,elephant,bear,3,1113_hp_dnn_3_bear_10_n02133161_2800.png
barlow_twins,1,1114,NaN,cat,bicycle,1,1114_hp_dnn_1_bicycle_10_n02835271_719.png
barlow_twins,1,1115,NaN,keyboard,bottle,3,1115_hp_dnn_3_bottle_10_n04591713_4585.png
barlow_twins,1,1116,NaN,knife,boat,inf,1116_hp_dnn_inf_boat_10_n03662601_11276.png
barlow_twins,1,1117,NaN,truck,dog,1,1117_hp_dnn_1_dog_10_n02097658_3693.png
barlow_twins,1,1118,NaN,knife,clock,3,1118_hp_dnn_3_clock_10_n04548280_57.png
barlow_twins,1,1119,NaN,elephant,dog,0.45,1119_hp_dnn_0.45_dog_10_n02091244_1455.png
barlow_twins,1,1120,NaN,airplane,bird,0.7,1120_hp_dnn_0.7_bird_10_n02013706_18409.png
barlow_twins,1,1121,NaN,knife,elephant,3,1121_hp_dnn_3_elephant_10_n02504458_13406.png
barlow_twins,1,1122,NaN,truck,knife,0.7,1122_hp_dnn_0.7_knife_10_n03041632_4787.png
barlow_twins,1,1123,NaN,elephant,car,0.45,1123_hp_dnn_0.45_car_10_n03100240_5633.png
barlow_twins,1,1124,NaN,chair,cat,1,1124_hp_dnn_1_cat_10_n02123597_647.png
barlow_twins,1,1125,NaN,oven,oven,1.5,1125_hp_dnn_1.5_oven_10_n04111531_605.png
barlow_twins,1,1126,NaN,elephant,bear,0.4,1126_hp_dnn_0.4_bear_10_n02134084_7805.png
barlow_twins,1,1127,NaN,elephant,truck,0.55,1127_hp_dnn_0.55_truck_10_n04467665_52409.png
barlow_twins,1,1128,NaN,oven,dog,3,1128_hp_dnn_3_dog_10_n02096294_1275.png
barlow_twins,1,1129,NaN,truck,elephant,1.5,1129_hp_dnn_1.5_elephant_10_n02504013_7079.png
barlow_twins,1,1130,NaN,elephant,chair,0.55,1130_hp_dnn_0.55_chair_10_n04099969_4725.png
barlow_twins,1,1131,NaN,elephant,chair,0.4,1131_hp_dnn_0.4_chair_10_n03376595_6673.png
barlow_twins,1,1132,NaN,elephant,bear,0.4,1132_hp_dnn_0.4_bear_10_n02133161_10325.png
barlow_twins,1,1133,NaN,elephant,chair,0.45,1133_hp_dnn_0.45_chair_10_n02791124_5684.png
barlow_twins,1,1134,NaN,truck,keyboard,inf,1134_hp_dnn_inf_keyboard_10_n03085013_23877.png
barlow_twins,1,1135,NaN,knife,clock,0.7,1135_hp_dnn_0.7_clock_10_n04548280_6493.png
barlow_twins,1,1136,NaN,elephant,bottle,1,1136_hp_dnn_1_bottle_10_n04591713_17676.png
barlow_twins,1,1137,NaN,oven,cat,3,1137_hp_dnn_3_cat_10_n02124075_4413.png
barlow_twins,1,1138,NaN,elephant,car,0.45,1138_hp_dnn_0.45_car_10_n03100240_21833.png
barlow_twins,1,1139,NaN,keyboard,truck,1,1139_hp_dnn_1_truck_10_n04467665_56754.png
barlow_twins,1,1140,NaN,truck,boat,1,1140_hp_dnn_1_boat_10_n04273569_16739.png
barlow_twins,1,1141,NaN,oven,cat,inf,1141_hp_dnn_inf_cat_10_n02125311_8369.png
barlow_twins,1,1142,NaN,elephant,clock,0.45,1142_hp_dnn_0.45_clock_10_n02708093_2926.png
barlow_twins,1,1143,NaN,elephant,bicycle,0.45,1143_hp_dnn_0.45_bicycle_10_n03792782_67327.png
barlow_twins,1,1144,NaN,bottle,car,3,1144_hp_dnn_3_car_10_n02814533_3375.png
barlow_twins,1,1145,NaN,elephant,bottle,1,1145_hp_dnn_1_bottle_10_n03983396_4716.png
barlow_twins,1,1146,NaN,knife,truck,inf,1146_hp_dnn_inf_truck_10_n03417042_5257.png
barlow_twins,1,1147,NaN,keyboard,bicycle,1.5,1147_hp_dnn_1.5_bicycle_10_n03792782_1983.png
barlow_twins,1,1148,NaN,oven,oven,inf,1148_hp_dnn_inf_oven_10_n04111531_16251.png
barlow_twins,1,1149,NaN,chair,boat,1,1149_hp_dnn_1_boat_10_n02951358_7320.png
barlow_twins,1,1150,NaN,oven,car,0.7,1150_hp_dnn_0.7_car_10_n02814533_45704.png
barlow_twins,1,1151,NaN,oven,dog,inf,1151_hp_dnn_inf_dog_10_n02086646_5897.png
barlow_twins,1,1152,NaN,truck,keyboard,1,1152_hp_dnn_1_keyboard_10_n04505470_142.png
barlow_twins,1,1153,NaN,elephant,boat,0.45,1153_hp_dnn_0.45_boat_10_n02951358_23313.png
barlow_twins,1,1154,NaN,elephant,keyboard,0.4,1154_hp_dnn_0.4_keyboard_10_n03085013_20462.png
barlow_twins,1,1155,NaN,truck,chair,3,1155_hp_dnn_3_chair_10_n04429376_28372.png
barlow_twins,1,1156,NaN,airplane,knife,1.5,1156_hp_dnn_1.5_knife_10_n03041632_38540.png
barlow_twins,1,1157,NaN,oven,truck,0.7,1157_hp_dnn_0.7_truck_10_n03417042_10958.png
barlow_twins,1,1158,NaN,airplane,cat,0.4,1158_hp_dnn_0.4_cat_10_n02123394_518.png
barlow_twins,1,1159,NaN,oven,clock,1.5,1159_hp_dnn_1.5_clock_10_n04548280_3198.png
barlow_twins,1,1160,NaN,chair,bird,1.5,1160_hp_dnn_1.5_bird_10_n02051845_14208.png
barlow_twins,1,1161,NaN,truck,bear,0.45,1161_hp_dnn_0.45_bear_10_n02134418_13618.png
barlow_twins,1,1162,NaN,elephant,dog,0.7,1162_hp_dnn_0.7_dog_10_n02098286_1591.png
barlow_twins,1,1163,NaN,knife,bottle,3,1163_hp_dnn_3_bottle_10_n04591713_7090.png
barlow_twins,1,1164,NaN,elephant,knife,inf,1164_hp_dnn_inf_knife_10_n03041632_22286.png
barlow_twins,1,1165,NaN,keyboard,clock,3,1165_hp_dnn_3_clock_10_n02708093_4737.png
barlow_twins,1,1166,NaN,elephant,keyboard,0.55,1166_hp_dnn_0.55_keyboard_10_n03085013_21301.png
barlow_twins,1,1167,NaN,airplane,knife,0.55,1167_hp_dnn_0.55_knife_10_n03041632_18304.png
