subj,session,trial,rt,object_response,category,condition,imagename
clip,1,1,NaN,boat,boat,0.7,0001_hp_dnn_0.7_boat_10_n03662601_12531.png
clip,1,2,NaN,chair,chair,0.7,0002_hp_dnn_0.7_chair_10_n04429376_22819.png
clip,1,3,NaN,elephant,elephant,0.45,0003_hp_dnn_0.45_elephant_10_n02504458_582.png
clip,1,4,NaN,clock,bicycle,0.7,0004_hp_dnn_0.7_bicycle_10_n03792782_41173.png
clip,1,5,NaN,cat,cat,1.5,0005_hp_dnn_1.5_cat_10_n02123597_7071.png
clip,1,6,NaN,elephant,cat,0.4,0006_hp_dnn_0.4_cat_10_n02123394_2386.png
clip,1,7,NaN,oven,oven,inf,0007_hp_dnn_inf_oven_10_n04111531_2201.png
clip,1,8,NaN,elephant,cat,0.45,0008_hp_dnn_0.45_cat_10_n02125311_43276.png
clip,1,9,NaN,knife,dog,0.45,0009_hp_dnn_0.45_dog_10_n02111500_2439.png
clip,1,10,NaN,elephant,bicycle,0.4,0010_hp_dnn_0.4_bicycle_10_n02835271_12599.png
clip,1,11,NaN,cat,dog,0.45,0011_hp_dnn_0.45_dog_10_n02096585_391.png
clip,1,12,NaN,car,car,0.7,0012_hp_dnn_0.7_car_10_n04285008_12138.png
clip,1,13,NaN,truck,car,0.7,0013_hp_dnn_0.7_car_10_n02814533_44083.png
clip,1,14,NaN,oven,oven,inf,0014_hp_dnn_inf_oven_10_n04111531_2447.png
clip,1,15,NaN,knife,chair,0.55,0015_hp_dnn_0.55_chair_10_n03376595_9524.png
clip,1,16,NaN,elephant,elephant,0.55,0016_hp_dnn_0.55_elephant_10_n02504458_3092.png
clip,1,17,NaN,truck,truck,0.4,0017_hp_dnn_0.4_truck_10_n04467665_42126.png
clip,1,18,NaN,elephant,elephant,inf,0018_hp_dnn_inf_elephant_10_n02504458_12303.png
clip,1,19,NaN,clock,clock,0.4,0019_hp_dnn_0.4_clock_10_n04548280_7243.png
clip,1,20,NaN,airplane,airplane,0.4,0020_hp_dnn_0.4_airplane_10_n02690373_6978.png
clip,1,21,NaN,boat,boat,3,0021_hp_dnn_3_boat_10_n04612504_4773.png
clip,1,22,NaN,bottle,bottle,inf,0022_hp_dnn_inf_bottle_10_n04560804_5979.png
clip,1,23,NaN,airplane,airplane,3,0023_hp_dnn_3_airplane_10_n02690373_21922.png
clip,1,24,NaN,elephant,bird,0.4,0024_hp_dnn_0.4_bird_10_n01820546_6431.png
clip,1,25,NaN,bird,bird,inf,0025_hp_dnn_inf_bird_10_n01795545_9555.png
clip,1,26,NaN,truck,truck,3,0026_hp_dnn_3_truck_10_n04467665_45796.png
clip,1,27,NaN,chair,oven,1,0027_hp_dnn_1_oven_10_n04111531_5906.png
clip,1,28,NaN,clock,bicycle,0.45,0028_hp_dnn_0.45_bicycle_10_n03792782_6133.png
clip,1,29,NaN,keyboard,keyboard,1,0029_hp_dnn_1_keyboard_10_n04505470_4741.png
clip,1,30,NaN,car,car,1.5,0030_hp_dnn_1.5_car_10_n02814533_5085.png
clip,1,31,NaN,clock,chair,0.4,0031_hp_dnn_0.4_chair_10_n04429376_10628.png
clip,1,32,NaN,clock,clock,0.55,0032_hp_dnn_0.55_clock_10_n02708093_5311.png
clip,1,33,NaN,chair,chair,0.55,0033_hp_dnn_0.55_chair_10_n03376595_10460.png
clip,1,34,NaN,bear,bear,3,0034_hp_dnn_3_bear_10_n02133161_1118.png
clip,1,35,NaN,knife,knife,3,0035_hp_dnn_3_knife_10_n03041632_11603.png
clip,1,36,NaN,elephant,dog,0.4,0036_hp_dnn_0.4_dog_10_n02108422_7493.png
clip,1,37,NaN,keyboard,keyboard,3,0037_hp_dnn_3_keyboard_10_n04505470_550.png
clip,1,38,NaN,bear,dog,1.5,0038_hp_dnn_1.5_dog_10_n02097047_1003.png
clip,1,39,NaN,bird,bird,1.5,0039_hp_dnn_1.5_bird_10_n01616318_9819.png
clip,1,40,NaN,knife,cat,0.55,0040_hp_dnn_0.55_cat_10_n02123597_1016.png
clip,1,41,NaN,bear,bear,1,0041_hp_dnn_1_bear_10_n02134418_971.png
clip,1,42,NaN,bear,bear,0.7,0042_hp_dnn_0.7_bear_10_n02132136_10944.png
clip,1,43,NaN,elephant,elephant,1,0043_hp_dnn_1_elephant_10_n02504458_4439.png
clip,1,44,NaN,keyboard,keyboard,0.4,0044_hp_dnn_0.4_keyboard_10_n03085013_2362.png
clip,1,45,NaN,bear,dog,1.5,0045_hp_dnn_1.5_dog_10_n02097474_9488.png
clip,1,46,NaN,clock,clock,inf,0046_hp_dnn_inf_clock_10_n04548280_3308.png
clip,1,47,NaN,bear,bear,1.5,0047_hp_dnn_1.5_bear_10_n02133161_334.png
clip,1,48,NaN,knife,knife,0.45,0048_hp_dnn_0.45_knife_10_n03041632_6708.png
clip,1,49,NaN,truck,car,0.55,0049_hp_dnn_0.55_car_10_n02814533_81092.png
clip,1,50,NaN,bottle,bottle,0.45,0050_hp_dnn_0.45_bottle_10_n03937543_11897.png
clip,1,51,NaN,airplane,airplane,3,0051_hp_dnn_3_airplane_10_n02690373_4429.png
clip,1,52,NaN,knife,knife,0.4,0052_hp_dnn_0.4_knife_10_n03041632_22964.png
clip,1,53,NaN,car,knife,1.5,0053_hp_dnn_1.5_knife_10_n03041632_33075.png
clip,1,54,NaN,elephant,bird,0.7,0054_hp_dnn_0.7_bird_10_n02006656_1412.png
clip,1,55,NaN,clock,clock,1,0055_hp_dnn_1_clock_10_n02708093_3173.png
clip,1,56,NaN,keyboard,keyboard,0.45,0056_hp_dnn_0.45_keyboard_10_n03085013_22016.png
clip,1,57,NaN,knife,elephant,0.55,0057_hp_dnn_0.55_elephant_10_n02504458_11214.png
clip,1,58,NaN,clock,chair,0.7,0058_hp_dnn_0.7_chair_10_n04099969_13775.png
clip,1,59,NaN,bicycle,bicycle,0.4,0059_hp_dnn_0.4_bicycle_10_n02835271_8098.png
clip,1,60,NaN,clock,clock,0.4,0060_hp_dnn_0.4_clock_10_n04548280_1126.png
clip,1,61,NaN,bicycle,bicycle,0.45,0061_hp_dnn_0.45_bicycle_10_n02835271_2050.png
clip,1,62,NaN,chair,oven,1,0062_hp_dnn_1_oven_10_n04111531_891.png
clip,1,63,NaN,bottle,bottle,0.7,0063_hp_dnn_0.7_bottle_10_n02823428_6201.png
clip,1,64,NaN,bicycle,bicycle,0.7,0064_hp_dnn_0.7_bicycle_10_n02835271_20175.png
clip,1,65,NaN,cat,cat,3,0065_hp_dnn_3_cat_10_n02123597_13175.png
clip,1,66,NaN,bear,dog,0.4,0066_hp_dnn_0.4_dog_10_n02085936_4391.png
clip,1,67,NaN,airplane,airplane,1.5,0067_hp_dnn_1.5_airplane_10_n02690373_8846.png
clip,1,68,NaN,cat,cat,1.5,0068_hp_dnn_1.5_cat_10_n02123597_10301.png
clip,1,69,NaN,elephant,elephant,0.7,0069_hp_dnn_0.7_elephant_10_n02504458_6135.png
clip,1,70,NaN,elephant,keyboard,0.45,0070_hp_dnn_0.45_keyboard_10_n03085013_22585.png
clip,1,71,NaN,clock,bird,1,0071_hp_dnn_1_bird_10_n02017213_1150.png
clip,1,72,NaN,bottle,bottle,3,0072_hp_dnn_3_bottle_10_n04560804_30885.png
clip,1,73,NaN,bicycle,bicycle,inf,0073_hp_dnn_inf_bicycle_10_n02835271_9191.png
clip,1,74,NaN,truck,truck,inf,0074_hp_dnn_inf_truck_10_n03796401_7699.png
clip,1,75,NaN,knife,knife,1.5,0075_hp_dnn_1.5_knife_10_n03041632_50332.png
clip,1,76,NaN,knife,knife,0.55,0076_hp_dnn_0.55_knife_10_n03041632_36247.png
clip,1,77,NaN,knife,knife,1.5,0077_hp_dnn_1.5_knife_10_n03041632_23667.png
clip,1,78,NaN,bear,dog,3,0078_hp_dnn_3_dog_10_n02102973_7028.png
clip,1,79,NaN,elephant,oven,0.55,0079_hp_dnn_0.55_oven_10_n04111531_9867.png
clip,1,80,NaN,car,car,0.55,0080_hp_dnn_0.55_car_10_n02814533_8121.png
clip,1,81,NaN,knife,boat,0.55,0081_hp_dnn_0.55_boat_10_n03662601_5210.png
clip,1,82,NaN,truck,car,1.5,0082_hp_dnn_1.5_car_10_n03100240_6192.png
clip,1,83,NaN,elephant,oven,0.45,0083_hp_dnn_0.45_oven_10_n04111531_9314.png
clip,1,84,NaN,elephant,cat,0.4,0084_hp_dnn_0.4_cat_10_n02123045_5189.png
clip,1,85,NaN,chair,truck,0.7,0085_hp_dnn_0.7_truck_10_n04467665_30189.png
clip,1,86,NaN,airplane,airplane,1.5,0086_hp_dnn_1.5_airplane_10_n02690373_3377.png
clip,1,87,NaN,knife,oven,0.4,0087_hp_dnn_0.4_oven_10_n04111531_1750.png
clip,1,88,NaN,dog,dog,inf,0088_hp_dnn_inf_dog_10_n02097047_2877.png
clip,1,89,NaN,cat,cat,inf,0089_hp_dnn_inf_cat_10_n02124075_15171.png
clip,1,90,NaN,elephant,car,0.4,0090_hp_dnn_0.4_car_10_n03100240_23060.png
clip,1,91,NaN,knife,knife,inf,0091_hp_dnn_inf_knife_10_n03041632_20595.png
clip,1,92,NaN,clock,knife,0.45,0092_hp_dnn_0.45_knife_10_n03041632_2184.png
clip,1,93,NaN,elephant,knife,0.4,0093_hp_dnn_0.4_knife_10_n03041632_42162.png
clip,1,94,NaN,truck,elephant,1,0094_hp_dnn_1_elephant_10_n02504458_3535.png
clip,1,95,NaN,bird,bird,inf,0095_hp_dnn_inf_bird_10_n02056570_11311.png
clip,1,96,NaN,clock,chair,0.4,0096_hp_dnn_0.4_chair_10_n03376595_4121.png
clip,1,97,NaN,dog,dog,1,0097_hp_dnn_1_dog_10_n02086240_3572.png
clip,1,98,NaN,elephant,elephant,inf,0098_hp_dnn_inf_elephant_10_n02504013_4523.png
clip,1,99,NaN,chair,chair,inf,0099_hp_dnn_inf_chair_10_n04429376_7902.png
clip,1,100,NaN,clock,bird,0.45,0100_hp_dnn_0.45_bird_10_n01530575_14402.png
clip,1,101,NaN,clock,bottle,0.55,0101_hp_dnn_0.55_bottle_10_n02823428_11140.png
clip,1,102,NaN,clock,airplane,0.55,0102_hp_dnn_0.55_airplane_10_n02690373_7685.png
clip,1,103,NaN,elephant,boat,0.45,0103_hp_dnn_0.45_boat_10_n03344393_4827.png
clip,1,104,NaN,elephant,dog,0.7,0104_hp_dnn_0.7_dog_10_n02088364_8674.png
clip,1,105,NaN,knife,knife,0.45,0105_hp_dnn_0.45_knife_10_n03041632_32004.png
clip,1,106,NaN,keyboard,keyboard,3,0106_hp_dnn_3_keyboard_10_n03085013_22949.png
clip,1,107,NaN,knife,knife,0.7,0107_hp_dnn_0.7_knife_10_n03041632_4044.png
clip,1,108,NaN,airplane,airplane,1.5,0108_hp_dnn_1.5_airplane_10_n02690373_6455.png
clip,1,109,NaN,truck,airplane,0.55,0109_hp_dnn_0.55_airplane_10_n02690373_19646.png
clip,1,110,NaN,boat,boat,inf,0110_hp_dnn_inf_boat_10_n04612504_1692.png
clip,1,111,NaN,knife,cat,0.55,0111_hp_dnn_0.55_cat_10_n02124075_853.png
clip,1,112,NaN,airplane,boat,1,0112_hp_dnn_1_boat_10_n04273569_6071.png
clip,1,113,NaN,bird,bird,1.5,0113_hp_dnn_1.5_bird_10_n01616318_1214.png
clip,1,114,NaN,car,car,1.5,0114_hp_dnn_1.5_car_10_n02814533_14627.png
clip,1,115,NaN,knife,keyboard,0.7,0115_hp_dnn_0.7_keyboard_10_n03085013_1483.png
clip,1,116,NaN,airplane,airplane,0.55,0116_hp_dnn_0.55_airplane_10_n02690373_7401.png
clip,1,117,NaN,knife,keyboard,0.55,0117_hp_dnn_0.55_keyboard_10_n03085013_6963.png
clip,1,118,NaN,knife,knife,3,0118_hp_dnn_3_knife_10_n03041632_1407.png
clip,1,119,NaN,elephant,elephant,1.5,0119_hp_dnn_1.5_elephant_10_n02504458_5137.png
clip,1,120,NaN,clock,clock,inf,0120_hp_dnn_inf_clock_10_n02708093_6635.png
clip,1,121,NaN,elephant,oven,0.4,0121_hp_dnn_0.4_oven_10_n04111531_5927.png
clip,1,122,NaN,clock,clock,inf,0122_hp_dnn_inf_clock_10_n02708093_2043.png
clip,1,123,NaN,airplane,airplane,0.4,0123_hp_dnn_0.4_airplane_10_n02690373_7300.png
clip,1,124,NaN,knife,oven,0.55,0124_hp_dnn_0.55_oven_10_n04111531_190.png
clip,1,125,NaN,dog,dog,3,0125_hp_dnn_3_dog_10_n02091244_8497.png
clip,1,126,NaN,knife,bicycle,0.7,0126_hp_dnn_0.7_bicycle_10_n03792782_15932.png
clip,1,127,NaN,elephant,bear,0.4,0127_hp_dnn_0.4_bear_10_n02133161_463.png
clip,1,128,NaN,cat,cat,0.7,0128_hp_dnn_0.7_cat_10_n02123045_11126.png
clip,1,129,NaN,clock,clock,0.7,0129_hp_dnn_0.7_clock_10_n04548280_8646.png
clip,1,130,NaN,clock,bottle,0.55,0130_hp_dnn_0.55_bottle_10_n03983396_11597.png
clip,1,131,NaN,truck,truck,3,0131_hp_dnn_3_truck_10_n03417042_212.png
clip,1,132,NaN,keyboard,keyboard,1,0132_hp_dnn_1_keyboard_10_n04505470_1724.png
clip,1,133,NaN,chair,chair,1,0133_hp_dnn_1_chair_10_n04099969_14028.png
clip,1,134,NaN,clock,cat,0.45,0134_hp_dnn_0.45_cat_10_n02124075_2138.png
clip,1,135,NaN,boat,boat,inf,0135_hp_dnn_inf_boat_10_n03662601_3145.png
clip,1,136,NaN,cat,cat,3,0136_hp_dnn_3_cat_10_n02123045_1120.png
clip,1,137,NaN,boat,boat,inf,0137_hp_dnn_inf_boat_10_n04612504_31305.png
clip,1,138,NaN,knife,chair,1,0138_hp_dnn_1_chair_10_n04099969_4275.png
clip,1,139,NaN,elephant,keyboard,0.4,0139_hp_dnn_0.4_keyboard_10_n03085013_23005.png
clip,1,140,NaN,airplane,airplane,1,0140_hp_dnn_1_airplane_10_n02690373_9618.png
clip,1,141,NaN,knife,knife,0.55,0141_hp_dnn_0.55_knife_10_n03041632_17338.png
clip,1,142,NaN,clock,clock,0.45,0142_hp_dnn_0.45_clock_10_n04548280_8225.png
clip,1,143,NaN,car,car,inf,0143_hp_dnn_inf_car_10_n03100240_8907.png
clip,1,144,NaN,chair,chair,1.5,0144_hp_dnn_1.5_chair_10_n03376595_6865.png
clip,1,145,NaN,knife,bicycle,0.45,0145_hp_dnn_0.45_bicycle_10_n03792782_44296.png
clip,1,146,NaN,airplane,boat,1.5,0146_hp_dnn_1.5_boat_10_n04273569_1233.png
clip,1,147,NaN,knife,bird,1,0147_hp_dnn_1_bird_10_n01824575_12784.png
clip,1,148,NaN,boat,boat,3,0148_hp_dnn_3_boat_10_n03344393_408.png
clip,1,149,NaN,airplane,airplane,1,0149_hp_dnn_1_airplane_10_n02690373_220.png
clip,1,150,NaN,chair,chair,3,0150_hp_dnn_3_chair_10_n04429376_10546.png
clip,1,151,NaN,airplane,oven,0.7,0151_hp_dnn_0.7_oven_10_n04111531_4749.png
clip,1,152,NaN,clock,truck,0.4,0152_hp_dnn_0.4_truck_10_n03417042_18124.png
clip,1,153,NaN,clock,clock,3,0153_hp_dnn_3_clock_10_n03196217_7353.png
clip,1,154,NaN,bear,dog,0.7,0154_hp_dnn_0.7_dog_10_n02098286_2699.png
clip,1,155,NaN,clock,truck,0.4,0155_hp_dnn_0.4_truck_10_n03796401_3651.png
clip,1,156,NaN,elephant,bottle,0.4,0156_hp_dnn_0.4_bottle_10_n03983396_4165.png
clip,1,157,NaN,chair,knife,1,0157_hp_dnn_1_knife_10_n03041632_25257.png
clip,1,158,NaN,chair,chair,3,0158_hp_dnn_3_chair_10_n04099969_1229.png
clip,1,159,NaN,bird,bird,inf,0159_hp_dnn_inf_bird_10_n01798484_518.png
clip,1,160,NaN,bird,bird,inf,0160_hp_dnn_inf_bird_10_n01797886_1953.png
clip,1,161,NaN,bird,bird,3,0161_hp_dnn_3_bird_10_n01820546_228.png
clip,1,162,NaN,bear,bear,1.5,0162_hp_dnn_1.5_bear_10_n02134418_2666.png
clip,1,163,NaN,boat,boat,1.5,0163_hp_dnn_1.5_boat_10_n03344393_7659.png
clip,1,164,NaN,oven,oven,1.5,0164_hp_dnn_1.5_oven_10_n04111531_1752.png
clip,1,165,NaN,dog,dog,inf,0165_hp_dnn_inf_dog_10_n02091032_8873.png
clip,1,166,NaN,knife,oven,0.7,0166_hp_dnn_0.7_oven_10_n04111531_14559.png
clip,1,167,NaN,knife,cat,0.7,0167_hp_dnn_0.7_cat_10_n02123045_114.png
clip,1,168,NaN,cat,cat,3,0168_hp_dnn_3_cat_10_n02123597_13865.png
clip,1,169,NaN,car,knife,0.55,0169_hp_dnn_0.55_knife_10_n03041632_13478.png
clip,1,170,NaN,elephant,elephant,0.55,0170_hp_dnn_0.55_elephant_10_n02504458_2618.png
clip,1,171,NaN,truck,truck,1,0171_hp_dnn_1_truck_10_n04467665_56954.png
clip,1,172,NaN,chair,chair,1,0172_hp_dnn_1_chair_10_n04429376_1791.png
clip,1,173,NaN,bottle,bottle,3,0173_hp_dnn_3_bottle_10_n04560804_33214.png
clip,1,174,NaN,knife,knife,inf,0174_hp_dnn_inf_knife_10_n03041632_48816.png
clip,1,175,NaN,cat,cat,3,0175_hp_dnn_3_cat_10_n02123394_2274.png
clip,1,176,NaN,truck,truck,1.5,0176_hp_dnn_1.5_truck_10_n03796401_1326.png
clip,1,177,NaN,knife,knife,0.55,0177_hp_dnn_0.55_knife_10_n03041632_11887.png
clip,1,178,NaN,knife,dog,0.7,0178_hp_dnn_0.7_dog_10_n02113978_8008.png
clip,1,179,NaN,cat,cat,0.4,0179_hp_dnn_0.4_cat_10_n02123045_4812.png
clip,1,180,NaN,bird,bird,inf,0180_hp_dnn_inf_bird_10_n01833805_3578.png
clip,1,181,NaN,truck,truck,1,0181_hp_dnn_1_truck_10_n03417042_3398.png
clip,1,182,NaN,knife,bird,0.7,0182_hp_dnn_0.7_bird_10_n02007558_4566.png
clip,1,183,NaN,clock,knife,0.45,0183_hp_dnn_0.45_knife_10_n03041632_3516.png
clip,1,184,NaN,cat,cat,1.5,0184_hp_dnn_1.5_cat_10_n02124075_14965.png
clip,1,185,NaN,elephant,bird,0.4,0185_hp_dnn_0.4_bird_10_n01843065_2176.png
clip,1,186,NaN,knife,knife,3,0186_hp_dnn_3_knife_10_n03041632_21034.png
clip,1,187,NaN,knife,keyboard,1.5,0187_hp_dnn_1.5_keyboard_10_n03085013_24026.png
clip,1,188,NaN,chair,bottle,0.55,0188_hp_dnn_0.55_bottle_10_n04560804_14395.png
clip,1,189,NaN,boat,boat,0.45,0189_hp_dnn_0.45_boat_10_n02951358_11567.png
clip,1,190,NaN,keyboard,chair,0.4,0190_hp_dnn_0.4_chair_10_n03376595_17747.png
clip,1,191,NaN,bottle,bottle,inf,0191_hp_dnn_inf_bottle_10_n04591713_5563.png
clip,1,192,NaN,airplane,airplane,3,0192_hp_dnn_3_airplane_10_n02690373_7496.png
clip,1,193,NaN,airplane,airplane,3,0193_hp_dnn_3_airplane_10_n02690373_4465.png
clip,1,194,NaN,elephant,bear,0.4,0194_hp_dnn_0.4_bear_10_n02134418_119.png
clip,1,195,NaN,bear,bear,1.5,0195_hp_dnn_1.5_bear_10_n02133161_1970.png
clip,1,196,NaN,knife,bird,1.5,0196_hp_dnn_1.5_bird_10_n02018795_5488.png
clip,1,197,NaN,elephant,bird,0.45,0197_hp_dnn_0.45_bird_10_n01796340_1877.png
clip,1,198,NaN,airplane,airplane,0.4,0198_hp_dnn_0.4_airplane_10_n02690373_4964.png
clip,1,199,NaN,clock,bottle,0.4,0199_hp_dnn_0.4_bottle_10_n04591713_1762.png
clip,1,200,NaN,car,car,1,0200_hp_dnn_1_car_10_n03100240_6059.png
clip,1,201,NaN,chair,chair,inf,0201_hp_dnn_inf_chair_10_n03376595_10769.png
clip,1,202,NaN,oven,oven,inf,0202_hp_dnn_inf_oven_10_n04111531_1723.png
clip,1,203,NaN,bicycle,bicycle,0.45,0203_hp_dnn_0.45_bicycle_10_n02835271_3570.png
clip,1,204,NaN,elephant,knife,0.4,0204_hp_dnn_0.4_knife_10_n03041632_83826.png
clip,1,205,NaN,knife,keyboard,0.7,0205_hp_dnn_0.7_keyboard_10_n03085013_20673.png
clip,1,206,NaN,knife,knife,1,0206_hp_dnn_1_knife_10_n03041632_27575.png
clip,1,207,NaN,bird,bird,1.5,0207_hp_dnn_1.5_bird_10_n01558993_14305.png
clip,1,208,NaN,elephant,bird,0.4,0208_hp_dnn_0.4_bird_10_n01537544_18123.png
clip,1,209,NaN,bicycle,bicycle,3,0209_hp_dnn_3_bicycle_10_n02835271_4307.png
clip,1,210,NaN,truck,car,0.7,0210_hp_dnn_0.7_car_10_n04285008_6320.png
clip,1,211,NaN,elephant,elephant,0.7,0211_hp_dnn_0.7_elephant_10_n02504458_1327.png
clip,1,212,NaN,bottle,bottle,1,0212_hp_dnn_1_bottle_10_n04560804_1813.png
clip,1,213,NaN,cat,cat,1,0213_hp_dnn_1_cat_10_n02124075_10085.png
clip,1,214,NaN,clock,clock,inf,0214_hp_dnn_inf_clock_10_n03196217_2853.png
clip,1,215,NaN,boat,boat,1.5,0215_hp_dnn_1.5_boat_10_n04273569_10149.png
clip,1,216,NaN,chair,chair,3,0216_hp_dnn_3_chair_10_n03376595_17859.png
clip,1,217,NaN,dog,dog,0.55,0217_hp_dnn_0.55_dog_10_n02101556_7581.png
clip,1,218,NaN,bear,cat,0.4,0218_hp_dnn_0.4_cat_10_n02125311_8522.png
clip,1,219,NaN,clock,clock,0.45,0219_hp_dnn_0.45_clock_10_n04548280_4345.png
clip,1,220,NaN,truck,truck,inf,0220_hp_dnn_inf_truck_10_n04467665_4088.png
clip,1,221,NaN,dog,dog,inf,0221_hp_dnn_inf_dog_10_n02102040_1100.png
clip,1,222,NaN,knife,bicycle,0.55,0222_hp_dnn_0.55_bicycle_10_n03792782_15557.png
clip,1,223,NaN,car,car,3,0223_hp_dnn_3_car_10_n04285008_12767.png
clip,1,224,NaN,elephant,boat,0.4,0224_hp_dnn_0.4_boat_10_n03662601_2438.png
clip,1,225,NaN,truck,truck,inf,0225_hp_dnn_inf_truck_10_n03417042_6419.png
clip,1,226,NaN,elephant,chair,0.45,0226_hp_dnn_0.45_chair_10_n04099969_9891.png
clip,1,227,NaN,cat,cat,inf,0227_hp_dnn_inf_cat_10_n02123045_8543.png
clip,1,228,NaN,clock,cat,0.55,0228_hp_dnn_0.55_cat_10_n02123045_7342.png
clip,1,229,NaN,elephant,bird,0.55,0229_hp_dnn_0.55_bird_10_n02018207_10814.png
clip,1,230,NaN,airplane,airplane,3,0230_hp_dnn_3_airplane_10_n02690373_20033.png
clip,1,231,NaN,clock,truck,0.55,0231_hp_dnn_0.55_truck_10_n04467665_13645.png
clip,1,232,NaN,airplane,airplane,1.5,0232_hp_dnn_1.5_airplane_10_n02690373_5015.png
clip,1,233,NaN,airplane,chair,1.5,0233_hp_dnn_1.5_chair_10_n03376595_6173.png
clip,1,234,NaN,knife,knife,1.5,0234_hp_dnn_1.5_knife_10_n03041632_91967.png
clip,1,235,NaN,elephant,elephant,inf,0235_hp_dnn_inf_elephant_10_n02504458_1271.png
clip,1,236,NaN,cat,cat,0.7,0236_hp_dnn_0.7_cat_10_n02123597_1684.png
clip,1,237,NaN,elephant,dog,0.55,0237_hp_dnn_0.55_dog_10_n02091831_3628.png
clip,1,238,NaN,truck,truck,0.45,0238_hp_dnn_0.45_truck_10_n04467665_64540.png
clip,1,239,NaN,airplane,airplane,1,0239_hp_dnn_1_airplane_10_n02690373_3289.png
clip,1,240,NaN,boat,boat,3,0240_hp_dnn_3_boat_10_n04273569_16949.png
clip,1,241,NaN,bicycle,bicycle,1,0241_hp_dnn_1_bicycle_10_n03792782_15174.png
clip,1,242,NaN,bottle,bottle,1.5,0242_hp_dnn_1.5_bottle_10_n03937543_146.png
clip,1,243,NaN,chair,chair,0.45,0243_hp_dnn_0.45_chair_10_n04429376_694.png
clip,1,244,NaN,clock,keyboard,0.4,0244_hp_dnn_0.4_keyboard_10_n03085013_19407.png
clip,1,245,NaN,clock,oven,0.45,0245_hp_dnn_0.45_oven_10_n04111531_4955.png
clip,1,246,NaN,dog,dog,1.5,0246_hp_dnn_1.5_dog_10_n02099712_1825.png
clip,1,247,NaN,knife,bear,0.55,0247_hp_dnn_0.55_bear_10_n02134084_14031.png
clip,1,248,NaN,car,car,0.45,0248_hp_dnn_0.45_car_10_n02814533_70922.png
clip,1,249,NaN,elephant,elephant,0.45,0249_hp_dnn_0.45_elephant_10_n02504458_217.png
clip,1,250,NaN,car,car,inf,0250_hp_dnn_inf_car_10_n02814533_27824.png
clip,1,251,NaN,keyboard,keyboard,0.7,0251_hp_dnn_0.7_keyboard_10_n03085013_24257.png
clip,1,252,NaN,elephant,elephant,3,0252_hp_dnn_3_elephant_10_n02504013_2269.png
clip,1,253,NaN,elephant,bear,0.45,0253_hp_dnn_0.45_bear_10_n02134418_1798.png
clip,1,254,NaN,dog,dog,0.45,0254_hp_dnn_0.45_dog_10_n02111129_6881.png
clip,1,255,NaN,truck,truck,1.5,0255_hp_dnn_1.5_truck_10_n04467665_67315.png
clip,1,256,NaN,knife,elephant,0.55,0256_hp_dnn_0.55_elephant_10_n02504013_3688.png
clip,1,257,NaN,truck,truck,1.5,0257_hp_dnn_1.5_truck_10_n04467665_38886.png
clip,1,258,NaN,bottle,bottle,inf,0258_hp_dnn_inf_bottle_10_n04557648_4250.png
clip,1,259,NaN,clock,chair,0.45,0259_hp_dnn_0.45_chair_10_n04099969_4053.png
clip,1,260,NaN,elephant,knife,0.7,0260_hp_dnn_0.7_knife_10_n03041632_5727.png
clip,1,261,NaN,knife,dog,1,0261_hp_dnn_1_dog_10_n02091134_4525.png
clip,1,262,NaN,keyboard,keyboard,inf,0262_hp_dnn_inf_keyboard_10_n04505470_4685.png
clip,1,263,NaN,clock,boat,0.4,0263_hp_dnn_0.4_boat_10_n02951358_6637.png
clip,1,264,NaN,dog,dog,1.5,0264_hp_dnn_1.5_dog_10_n02093256_11232.png
clip,1,265,NaN,elephant,elephant,inf,0265_hp_dnn_inf_elephant_10_n02504013_816.png
clip,1,266,NaN,bear,bear,1.5,0266_hp_dnn_1.5_bear_10_n02134084_1484.png
clip,1,267,NaN,knife,boat,0.45,0267_hp_dnn_0.45_boat_10_n04273569_15859.png
clip,1,268,NaN,bicycle,bicycle,3,0268_hp_dnn_3_bicycle_10_n02835271_7311.png
clip,1,269,NaN,bear,cat,1,0269_hp_dnn_1_cat_10_n02123045_2339.png
clip,1,270,NaN,elephant,elephant,0.45,0270_hp_dnn_0.45_elephant_10_n02504458_4448.png
clip,1,271,NaN,car,car,1,0271_hp_dnn_1_car_10_n03100240_9955.png
clip,1,272,NaN,knife,truck,0.55,0272_hp_dnn_0.55_truck_10_n03417042_7310.png
clip,1,273,NaN,knife,chair,0.55,0273_hp_dnn_0.55_chair_10_n04099969_20421.png
clip,1,274,NaN,boat,boat,0.45,0274_hp_dnn_0.45_boat_10_n04612504_4581.png
clip,1,275,NaN,bear,bear,1,0275_hp_dnn_1_bear_10_n02134418_4515.png
clip,1,276,NaN,chair,truck,0.7,0276_hp_dnn_0.7_truck_10_n03796401_1082.png
clip,1,277,NaN,bicycle,bicycle,1,0277_hp_dnn_1_bicycle_10_n03792782_8176.png
clip,1,278,NaN,clock,oven,0.4,0278_hp_dnn_0.4_oven_10_n04111531_5463.png
clip,1,279,NaN,elephant,elephant,1.5,0279_hp_dnn_1.5_elephant_10_n02504013_4166.png
clip,1,280,NaN,airplane,airplane,0.7,0280_hp_dnn_0.7_airplane_10_n02690373_18295.png
clip,1,281,NaN,cat,cat,0.45,0281_hp_dnn_0.45_cat_10_n02124075_1460.png
clip,1,282,NaN,elephant,bird,0.55,0282_hp_dnn_0.55_bird_10_n02028035_17759.png
clip,1,283,NaN,knife,chair,3,0283_hp_dnn_3_chair_10_n02791124_6654.png
clip,1,284,NaN,truck,truck,0.7,0284_hp_dnn_0.7_truck_10_n04467665_22974.png
clip,1,285,NaN,keyboard,clock,0.55,0285_hp_dnn_0.55_clock_10_n03196217_2983.png
clip,1,286,NaN,oven,knife,inf,0286_hp_dnn_inf_knife_10_n03041632_23968.png
clip,1,287,NaN,clock,keyboard,0.4,0287_hp_dnn_0.4_keyboard_10_n03085013_23519.png
clip,1,288,NaN,bottle,bottle,1.5,0288_hp_dnn_1.5_bottle_10_n04591713_14895.png
clip,1,289,NaN,knife,elephant,1,0289_hp_dnn_1_elephant_10_n02504013_3969.png
clip,1,290,NaN,bear,bear,3,0290_hp_dnn_3_bear_10_n02134418_3723.png
clip,1,291,NaN,knife,keyboard,0.45,0291_hp_dnn_0.45_keyboard_10_n04505470_709.png
clip,1,292,NaN,knife,knife,1.5,0292_hp_dnn_1.5_knife_10_n03041632_379.png
clip,1,293,NaN,knife,oven,3,0293_hp_dnn_3_oven_10_n04111531_13128.png
clip,1,294,NaN,elephant,elephant,0.55,0294_hp_dnn_0.55_elephant_10_n02504013_933.png
clip,1,295,NaN,airplane,airplane,inf,0295_hp_dnn_inf_airplane_10_n02690373_17603.png
clip,1,296,NaN,knife,airplane,0.45,0296_hp_dnn_0.45_airplane_10_n02690373_5177.png
clip,1,297,NaN,chair,chair,1.5,0297_hp_dnn_1.5_chair_10_n04429376_28121.png
clip,1,298,NaN,clock,truck,0.55,0298_hp_dnn_0.55_truck_10_n03417042_6517.png
clip,1,299,NaN,airplane,chair,0.55,0299_hp_dnn_0.55_chair_10_n03376595_5503.png
clip,1,300,NaN,clock,clock,1.5,0300_hp_dnn_1.5_clock_10_n03196217_7918.png
clip,1,301,NaN,car,car,1,0301_hp_dnn_1_car_10_n04285008_7751.png
clip,1,302,NaN,elephant,clock,0.4,0302_hp_dnn_0.4_clock_10_n03196217_2628.png
clip,1,303,NaN,bird,bird,0.55,0303_hp_dnn_0.55_bird_10_n01833805_6395.png
clip,1,304,NaN,elephant,boat,0.4,0304_hp_dnn_0.4_boat_10_n03344393_6015.png
clip,1,305,NaN,knife,elephant,1.5,0305_hp_dnn_1.5_elephant_10_n02504013_2739.png
clip,1,306,NaN,clock,keyboard,0.45,0306_hp_dnn_0.45_keyboard_10_n03085013_23316.png
clip,1,307,NaN,airplane,airplane,1,0307_hp_dnn_1_airplane_10_n02690373_20350.png
clip,1,308,NaN,clock,clock,3,0308_hp_dnn_3_clock_10_n02708093_3484.png
clip,1,309,NaN,elephant,bicycle,0.55,0309_hp_dnn_0.55_bicycle_10_n03792782_10185.png
clip,1,310,NaN,knife,knife,3,0310_hp_dnn_3_knife_10_n03041632_42196.png
clip,1,311,NaN,bird,bird,inf,0311_hp_dnn_inf_bird_10_n01855672_6132.png
clip,1,312,NaN,elephant,bottle,0.4,0312_hp_dnn_0.4_bottle_10_n03983396_3047.png
clip,1,313,NaN,clock,bottle,0.4,0313_hp_dnn_0.4_bottle_10_n04557648_2093.png
clip,1,314,NaN,keyboard,keyboard,0.55,0314_hp_dnn_0.55_keyboard_10_n04505470_7686.png
clip,1,315,NaN,bird,bear,1.5,0315_hp_dnn_1.5_bear_10_n02132136_5051.png
clip,1,316,NaN,knife,bear,1,0316_hp_dnn_1_bear_10_n02134418_24559.png
clip,1,317,NaN,bear,oven,0.55,0317_hp_dnn_0.55_oven_10_n04111531_3702.png
clip,1,318,NaN,bicycle,bicycle,1,0318_hp_dnn_1_bicycle_10_n02835271_24230.png
clip,1,319,NaN,keyboard,keyboard,1.5,0319_hp_dnn_1.5_keyboard_10_n03085013_2272.png
clip,1,320,NaN,knife,keyboard,0.55,0320_hp_dnn_0.55_keyboard_10_n03085013_23201.png
clip,1,321,NaN,airplane,boat,1.5,0321_hp_dnn_1.5_boat_10_n04273569_9803.png
clip,1,322,NaN,elephant,boat,0.4,0322_hp_dnn_0.4_boat_10_n04612504_29813.png
clip,1,323,NaN,clock,clock,1,0323_hp_dnn_1_clock_10_n02708093_1291.png
clip,1,324,NaN,clock,oven,0.4,0324_hp_dnn_0.4_oven_10_n04111531_1794.png
clip,1,325,NaN,elephant,bear,0.4,0325_hp_dnn_0.4_bear_10_n02132136_5612.png
clip,1,326,NaN,boat,boat,1.5,0326_hp_dnn_1.5_boat_10_n04273569_3401.png
clip,1,327,NaN,cat,cat,3,0327_hp_dnn_3_cat_10_n02125311_16544.png
clip,1,328,NaN,clock,clock,1.5,0328_hp_dnn_1.5_clock_10_n03196217_10717.png
clip,1,329,NaN,bear,bear,3,0329_hp_dnn_3_bear_10_n02134418_47.png
clip,1,330,NaN,keyboard,bottle,3,0330_hp_dnn_3_bottle_10_n04591713_4380.png
clip,1,331,NaN,clock,chair,0.55,0331_hp_dnn_0.55_chair_10_n04429376_8710.png
clip,1,332,NaN,bicycle,bicycle,3,0332_hp_dnn_3_bicycle_10_n02835271_781.png
clip,1,333,NaN,bear,bear,1.5,0333_hp_dnn_1.5_bear_10_n02134418_875.png
clip,1,334,NaN,bear,dog,0.55,0334_hp_dnn_0.55_dog_10_n02094433_10343.png
clip,1,335,NaN,airplane,airplane,3,0335_hp_dnn_3_airplane_10_n02690373_1053.png
clip,1,336,NaN,airplane,airplane,3,0336_hp_dnn_3_airplane_10_n02690373_18848.png
clip,1,337,NaN,keyboard,keyboard,3,0337_hp_dnn_3_keyboard_10_n03085013_18741.png
clip,1,338,NaN,bear,bear,inf,0338_hp_dnn_inf_bear_10_n02134418_3152.png
clip,1,339,NaN,bicycle,bicycle,1.5,0339_hp_dnn_1.5_bicycle_10_n03792782_14557.png
clip,1,340,NaN,knife,bird,0.7,0340_hp_dnn_0.7_bird_10_n01796340_5262.png
clip,1,341,NaN,bicycle,bicycle,1,0341_hp_dnn_1_bicycle_10_n03792782_4559.png
clip,1,342,NaN,bear,bear,0.45,0342_hp_dnn_0.45_bear_10_n02134084_3177.png
clip,1,343,NaN,cat,elephant,0.4,0343_hp_dnn_0.4_elephant_10_n02504458_5008.png
clip,1,344,NaN,airplane,oven,3,0344_hp_dnn_3_oven_10_n04111531_7955.png
clip,1,345,NaN,bicycle,bicycle,inf,0345_hp_dnn_inf_bicycle_10_n02835271_13793.png
clip,1,346,NaN,clock,keyboard,0.45,0346_hp_dnn_0.45_keyboard_10_n03085013_14810.png
clip,1,347,NaN,truck,car,0.7,0347_hp_dnn_0.7_car_10_n02814533_39933.png
clip,1,348,NaN,bird,bird,1,0348_hp_dnn_1_bird_10_n02027492_4897.png
clip,1,349,NaN,keyboard,keyboard,3,0349_hp_dnn_3_keyboard_10_n03085013_23776.png
clip,1,350,NaN,truck,car,1.5,0350_hp_dnn_1.5_car_10_n02814533_31493.png
clip,1,351,NaN,boat,boat,1.5,0351_hp_dnn_1.5_boat_10_n03344393_7631.png
clip,1,352,NaN,bicycle,bicycle,0.4,0352_hp_dnn_0.4_bicycle_10_n02835271_1261.png
clip,1,353,NaN,knife,clock,1,0353_hp_dnn_1_clock_10_n03196217_1850.png
clip,1,354,NaN,bear,bear,inf,0354_hp_dnn_inf_bear_10_n02132136_22387.png
clip,1,355,NaN,knife,airplane,1.5,0355_hp_dnn_1.5_airplane_10_n02690373_2316.png
clip,1,356,NaN,cat,cat,0.7,0356_hp_dnn_0.7_cat_10_n02123597_3634.png
clip,1,357,NaN,clock,bird,0.45,0357_hp_dnn_0.45_bird_10_n02018207_4151.png
clip,1,358,NaN,knife,knife,0.7,0358_hp_dnn_0.7_knife_10_n03041632_94155.png
clip,1,359,NaN,clock,bottle,0.45,0359_hp_dnn_0.45_bottle_10_n04560804_7509.png
clip,1,360,NaN,clock,cat,0.4,0360_hp_dnn_0.4_cat_10_n02123045_12748.png
clip,1,361,NaN,knife,elephant,0.7,0361_hp_dnn_0.7_elephant_10_n02504013_6.png
clip,1,362,NaN,elephant,elephant,0.4,0362_hp_dnn_0.4_elephant_10_n02504013_1492.png
clip,1,363,NaN,dog,dog,0.4,0363_hp_dnn_0.4_dog_10_n02107142_27162.png
clip,1,364,NaN,knife,bear,0.7,0364_hp_dnn_0.7_bear_10_n02134418_962.png
clip,1,365,NaN,truck,truck,0.7,0365_hp_dnn_0.7_truck_10_n03417042_9693.png
clip,1,366,NaN,knife,oven,1,0366_hp_dnn_1_oven_10_n04111531_2116.png
clip,1,367,NaN,keyboard,keyboard,inf,0367_hp_dnn_inf_keyboard_10_n03085013_20460.png
clip,1,368,NaN,knife,bird,0.45,0368_hp_dnn_0.45_bird_10_n01796340_6191.png
clip,1,369,NaN,oven,oven,1.5,0369_hp_dnn_1.5_oven_10_n04111531_8046.png
clip,1,370,NaN,clock,boat,0.45,0370_hp_dnn_0.45_boat_10_n03344393_11788.png
clip,1,371,NaN,cat,cat,inf,0371_hp_dnn_inf_cat_10_n02123394_2765.png
clip,1,372,NaN,bicycle,bicycle,0.4,0372_hp_dnn_0.4_bicycle_10_n03792782_26834.png
clip,1,373,NaN,bear,cat,1.5,0373_hp_dnn_1.5_cat_10_n02125311_37036.png
clip,1,374,NaN,bicycle,bicycle,0.7,0374_hp_dnn_0.7_bicycle_10_n03792782_4067.png
clip,1,375,NaN,bear,bear,inf,0375_hp_dnn_inf_bear_10_n02134418_3886.png
clip,1,376,NaN,dog,dog,0.7,0376_hp_dnn_0.7_dog_10_n02110185_9014.png
clip,1,377,NaN,bear,bear,inf,0377_hp_dnn_inf_bear_10_n02134084_14888.png
clip,1,378,NaN,knife,truck,1.5,0378_hp_dnn_1.5_truck_10_n03417042_5249.png
clip,1,379,NaN,knife,oven,1,0379_hp_dnn_1_oven_10_n04111531_10711.png
clip,1,380,NaN,car,car,1.5,0380_hp_dnn_1.5_car_10_n04285008_15271.png
clip,1,381,NaN,clock,cat,0.45,0381_hp_dnn_0.45_cat_10_n02123597_12232.png
clip,1,382,NaN,chair,clock,3,0382_hp_dnn_3_clock_10_n04548280_8083.png
clip,1,383,NaN,clock,chair,0.45,0383_hp_dnn_0.45_chair_10_n04099969_8946.png
clip,1,384,NaN,knife,keyboard,0.7,0384_hp_dnn_0.7_keyboard_10_n03085013_21973.png
clip,1,385,NaN,knife,bottle,0.7,0385_hp_dnn_0.7_bottle_10_n04560804_15225.png
clip,1,386,NaN,cat,cat,inf,0386_hp_dnn_inf_cat_10_n02123045_10395.png
clip,1,387,NaN,truck,truck,0.45,0387_hp_dnn_0.45_truck_10_n03417042_4188.png
clip,1,388,NaN,keyboard,keyboard,1.5,0388_hp_dnn_1.5_keyboard_10_n03085013_21615.png
clip,1,389,NaN,knife,knife,inf,0389_hp_dnn_inf_knife_10_n03041632_26989.png
clip,1,390,NaN,airplane,airplane,0.55,0390_hp_dnn_0.55_airplane_10_n02690373_16986.png
clip,1,391,NaN,bicycle,bicycle,inf,0391_hp_dnn_inf_bicycle_10_n02835271_9067.png
clip,1,392,NaN,knife,dog,0.45,0392_hp_dnn_0.45_dog_10_n02106382_9188.png
clip,1,393,NaN,boat,boat,inf,0393_hp_dnn_inf_boat_10_n02951358_3205.png
clip,1,394,NaN,clock,knife,0.4,0394_hp_dnn_0.4_knife_10_n03041632_45270.png
clip,1,395,NaN,car,car,inf,0395_hp_dnn_inf_car_10_n03100240_6376.png
clip,1,396,NaN,truck,truck,1,0396_hp_dnn_1_truck_10_n03796401_430.png
clip,1,397,NaN,knife,knife,0.7,0397_hp_dnn_0.7_knife_10_n03041632_24181.png
clip,1,398,NaN,bear,bear,1,0398_hp_dnn_1_bear_10_n02134084_16190.png
clip,1,399,NaN,knife,bear,0.55,0399_hp_dnn_0.55_bear_10_n02132136_7253.png
clip,1,400,NaN,knife,boat,1,0400_hp_dnn_1_boat_10_n03662601_34676.png
clip,1,401,NaN,clock,knife,0.55,0401_hp_dnn_0.55_knife_10_n03041632_81471.png
clip,1,402,NaN,clock,cat,0.7,0402_hp_dnn_0.7_cat_10_n02123597_3822.png
clip,1,403,NaN,keyboard,keyboard,1.5,0403_hp_dnn_1.5_keyboard_10_n03085013_4823.png
clip,1,404,NaN,elephant,dog,0.4,0404_hp_dnn_0.4_dog_10_n02108551_8385.png
clip,1,405,NaN,cat,cat,0.7,0405_hp_dnn_0.7_cat_10_n02124075_8732.png
clip,1,406,NaN,dog,dog,3,0406_hp_dnn_3_dog_10_n02093428_17625.png
clip,1,407,NaN,chair,chair,inf,0407_hp_dnn_inf_chair_10_n02791124_6999.png
clip,1,408,NaN,bird,bird,3,0408_hp_dnn_3_bird_10_n02028035_521.png
clip,1,409,NaN,elephant,truck,0.4,0409_hp_dnn_0.4_truck_10_n03417042_750.png
clip,1,410,NaN,airplane,airplane,inf,0410_hp_dnn_inf_airplane_10_n02690373_5779.png
clip,1,411,NaN,cat,cat,1.5,0411_hp_dnn_1.5_cat_10_n02123045_7154.png
clip,1,412,NaN,bottle,bottle,1.5,0412_hp_dnn_1.5_bottle_10_n04591713_6958.png
clip,1,413,NaN,bird,bird,1.5,0413_hp_dnn_1.5_bird_10_n01818515_42621.png
clip,1,414,NaN,truck,truck,inf,0414_hp_dnn_inf_truck_10_n03796401_1330.png
clip,1,415,NaN,bird,bird,1.5,0415_hp_dnn_1.5_bird_10_n01843065_6365.png
clip,1,416,NaN,bottle,bottle,1.5,0416_hp_dnn_1.5_bottle_10_n03983396_11898.png
clip,1,417,NaN,knife,bird,3,0417_hp_dnn_3_bird_10_n01530575_3831.png
clip,1,418,NaN,clock,bottle,0.4,0418_hp_dnn_0.4_bottle_10_n03983396_8837.png
clip,1,419,NaN,car,car,0.7,0419_hp_dnn_0.7_car_10_n02814533_90798.png
clip,1,420,NaN,bird,bird,3,0420_hp_dnn_3_bird_10_n01819313_3440.png
clip,1,421,NaN,knife,dog,0.55,0421_hp_dnn_0.55_dog_10_n02090721_4433.png
clip,1,422,NaN,boat,elephant,3,0422_hp_dnn_3_elephant_10_n02504013_9566.png
clip,1,423,NaN,bear,dog,1.5,0423_hp_dnn_1.5_dog_10_n02105251_6599.png
clip,1,424,NaN,clock,chair,0.7,0424_hp_dnn_0.7_chair_10_n02791124_5759.png
clip,1,425,NaN,elephant,elephant,inf,0425_hp_dnn_inf_elephant_10_n02504458_150.png
clip,1,426,NaN,clock,clock,0.45,0426_hp_dnn_0.45_clock_10_n04548280_10040.png
clip,1,427,NaN,knife,elephant,0.7,0427_hp_dnn_0.7_elephant_10_n02504458_155.png
clip,1,428,NaN,knife,knife,1,0428_hp_dnn_1_knife_10_n03041632_48062.png
clip,1,429,NaN,truck,truck,1.5,0429_hp_dnn_1.5_truck_10_n04467665_40361.png
clip,1,430,NaN,knife,bird,0.45,0430_hp_dnn_0.45_bird_10_n01614925_7608.png
clip,1,431,NaN,elephant,bear,0.45,0431_hp_dnn_0.45_bear_10_n02133161_2749.png
clip,1,432,NaN,boat,boat,0.55,0432_hp_dnn_0.55_boat_10_n04612504_654.png
clip,1,433,NaN,bottle,bottle,1,0433_hp_dnn_1_bottle_10_n04579145_287.png
clip,1,434,NaN,knife,bear,3,0434_hp_dnn_3_bear_10_n02133161_1423.png
clip,1,435,NaN,bicycle,bicycle,0.7,0435_hp_dnn_0.7_bicycle_10_n02835271_4656.png
clip,1,436,NaN,clock,clock,0.7,0436_hp_dnn_0.7_clock_10_n02708093_3688.png
clip,1,437,NaN,airplane,airplane,inf,0437_hp_dnn_inf_airplane_10_n02690373_10278.png
clip,1,438,NaN,elephant,car,0.4,0438_hp_dnn_0.4_car_10_n04285008_11133.png
clip,1,439,NaN,chair,knife,1,0439_hp_dnn_1_knife_10_n03041632_4214.png
clip,1,440,NaN,knife,oven,inf,0440_hp_dnn_inf_oven_10_n04111531_7741.png
clip,1,441,NaN,bicycle,bicycle,3,0441_hp_dnn_3_bicycle_10_n03792782_4472.png
clip,1,442,NaN,clock,bird,0.7,0442_hp_dnn_0.7_bird_10_n01798484_18666.png
clip,1,443,NaN,keyboard,keyboard,1.5,0443_hp_dnn_1.5_keyboard_10_n04505470_5059.png
clip,1,444,NaN,knife,elephant,0.55,0444_hp_dnn_0.55_elephant_10_n02504013_2369.png
clip,1,445,NaN,bottle,bottle,3,0445_hp_dnn_3_bottle_10_n02823428_10796.png
clip,1,446,NaN,knife,oven,3,0446_hp_dnn_3_oven_10_n04111531_4421.png
clip,1,447,NaN,bicycle,bicycle,inf,0447_hp_dnn_inf_bicycle_10_n02835271_7303.png
clip,1,448,NaN,chair,chair,inf,0448_hp_dnn_inf_chair_10_n02791124_7877.png
clip,1,449,NaN,bottle,bottle,1.5,0449_hp_dnn_1.5_bottle_10_n04560804_12099.png
clip,1,450,NaN,boat,boat,1,0450_hp_dnn_1_boat_10_n03662601_18924.png
clip,1,451,NaN,bottle,bottle,1,0451_hp_dnn_1_bottle_10_n04591713_4206.png
clip,1,452,NaN,clock,clock,0.55,0452_hp_dnn_0.55_clock_10_n04548280_6689.png
clip,1,453,NaN,elephant,dog,0.4,0453_hp_dnn_0.4_dog_10_n02090721_5305.png
clip,1,454,NaN,clock,clock,0.7,0454_hp_dnn_0.7_clock_10_n03196217_1746.png
clip,1,455,NaN,keyboard,keyboard,3,0455_hp_dnn_3_keyboard_10_n04505470_7721.png
clip,1,456,NaN,clock,clock,0.55,0456_hp_dnn_0.55_clock_10_n04548280_3248.png
clip,1,457,NaN,bird,bird,inf,0457_hp_dnn_inf_bird_10_n01534433_28009.png
clip,1,458,NaN,knife,chair,0.4,0458_hp_dnn_0.4_chair_10_n04099969_142.png
clip,1,459,NaN,bicycle,bicycle,0.55,0459_hp_dnn_0.55_bicycle_10_n03792782_7092.png
clip,1,460,NaN,bicycle,keyboard,0.45,0460_hp_dnn_0.45_keyboard_10_n03085013_25559.png
clip,1,461,NaN,knife,elephant,0.7,0461_hp_dnn_0.7_elephant_10_n02504013_9144.png
clip,1,462,NaN,clock,clock,0.45,0462_hp_dnn_0.45_clock_10_n03196217_2003.png
clip,1,463,NaN,elephant,elephant,1,0463_hp_dnn_1_elephant_10_n02504013_3169.png
clip,1,464,NaN,elephant,dog,0.55,0464_hp_dnn_0.55_dog_10_n02089867_6424.png
clip,1,465,NaN,keyboard,keyboard,1,0465_hp_dnn_1_keyboard_10_n03085013_22494.png
clip,1,466,NaN,elephant,dog,0.4,0466_hp_dnn_0.4_dog_10_n02106662_37555.png
clip,1,467,NaN,car,car,0.55,0467_hp_dnn_0.55_car_10_n02814533_4726.png
clip,1,468,NaN,elephant,elephant,0.45,0468_hp_dnn_0.45_elephant_10_n02504458_1473.png
clip,1,469,NaN,elephant,bottle,0.55,0469_hp_dnn_0.55_bottle_10_n04557648_3350.png
clip,1,470,NaN,clock,knife,0.4,0470_hp_dnn_0.4_knife_10_n03041632_31909.png
clip,1,471,NaN,clock,truck,0.4,0471_hp_dnn_0.4_truck_10_n04467665_70880.png
clip,1,472,NaN,elephant,dog,0.45,0472_hp_dnn_0.45_dog_10_n02097209_7557.png
clip,1,473,NaN,knife,oven,1,0473_hp_dnn_1_oven_10_n04111531_4438.png
clip,1,474,NaN,airplane,airplane,0.7,0474_hp_dnn_0.7_airplane_10_n02690373_194.png
clip,1,475,NaN,bicycle,bicycle,1.5,0475_hp_dnn_1.5_bicycle_10_n02835271_6953.png
clip,1,476,NaN,chair,oven,0.45,0476_hp_dnn_0.45_oven_10_n04111531_14435.png
clip,1,477,NaN,elephant,elephant,1.5,0477_hp_dnn_1.5_elephant_10_n02504013_5192.png
clip,1,478,NaN,knife,chair,0.7,0478_hp_dnn_0.7_chair_10_n03376595_3566.png
clip,1,479,NaN,truck,truck,1,0479_hp_dnn_1_truck_10_n03417042_22709.png
clip,1,480,NaN,keyboard,keyboard,inf,0480_hp_dnn_inf_keyboard_10_n04505470_4603.png
clip,1,481,NaN,car,car,0.55,0481_hp_dnn_0.55_car_10_n03100240_1794.png
clip,1,482,NaN,cat,elephant,0.7,0482_hp_dnn_0.7_elephant_10_n02504458_1233.png
clip,1,483,NaN,clock,airplane,0.45,0483_hp_dnn_0.45_airplane_10_n02690373_3047.png
clip,1,484,NaN,knife,elephant,0.55,0484_hp_dnn_0.55_elephant_10_n02504013_7422.png
clip,1,485,NaN,bicycle,bicycle,0.45,0485_hp_dnn_0.45_bicycle_10_n03792782_16034.png
clip,1,486,NaN,bicycle,bicycle,3,0486_hp_dnn_3_bicycle_10_n02835271_11922.png
clip,1,487,NaN,truck,truck,0.7,0487_hp_dnn_0.7_truck_10_n03796401_6526.png
clip,1,488,NaN,boat,boat,3,0488_hp_dnn_3_boat_10_n03662601_1834.png
clip,1,489,NaN,dog,dog,0.7,0489_hp_dnn_0.7_dog_10_n02100236_619.png
clip,1,490,NaN,clock,truck,0.45,0490_hp_dnn_0.45_truck_10_n04467665_21266.png
clip,1,491,NaN,chair,chair,0.55,0491_hp_dnn_0.55_chair_10_n04099969_18220.png
clip,1,492,NaN,keyboard,keyboard,1.5,0492_hp_dnn_1.5_keyboard_10_n03085013_4157.png
clip,1,493,NaN,clock,bicycle,0.4,0493_hp_dnn_0.4_bicycle_10_n03792782_1276.png
clip,1,494,NaN,boat,boat,3,0494_hp_dnn_3_boat_10_n03344393_1987.png
clip,1,495,NaN,boat,boat,0.45,0495_hp_dnn_0.45_boat_10_n03344393_381.png
clip,1,496,NaN,clock,clock,inf,0496_hp_dnn_inf_clock_10_n02708093_8390.png
clip,1,497,NaN,keyboard,keyboard,0.55,0497_hp_dnn_0.55_keyboard_10_n04505470_1043.png
clip,1,498,NaN,knife,dog,0.55,0498_hp_dnn_0.55_dog_10_n02100877_1902.png
clip,1,499,NaN,knife,knife,1.5,0499_hp_dnn_1.5_knife_10_n03041632_55083.png
clip,1,500,NaN,truck,truck,1.5,0500_hp_dnn_1.5_truck_10_n04467665_45872.png
clip,1,501,NaN,knife,boat,0.7,0501_hp_dnn_0.7_boat_10_n04273569_3244.png
clip,1,502,NaN,knife,bear,0.45,0502_hp_dnn_0.45_bear_10_n02134418_2157.png
clip,1,503,NaN,bottle,bottle,3,0503_hp_dnn_3_bottle_10_n04591713_17618.png
clip,1,504,NaN,cat,cat,1,0504_hp_dnn_1_cat_10_n02125311_8496.png
clip,1,505,NaN,car,car,inf,0505_hp_dnn_inf_car_10_n02814533_3560.png
clip,1,506,NaN,truck,truck,0.7,0506_hp_dnn_0.7_truck_10_n03417042_751.png
clip,1,507,NaN,keyboard,keyboard,inf,0507_hp_dnn_inf_keyboard_10_n03085013_23213.png
clip,1,508,NaN,clock,bicycle,0.4,0508_hp_dnn_0.4_bicycle_10_n03792782_19709.png
clip,1,509,NaN,oven,oven,inf,0509_hp_dnn_inf_oven_10_n04111531_3076.png
clip,1,510,NaN,clock,knife,0.4,0510_hp_dnn_0.4_knife_10_n03041632_14774.png
clip,1,511,NaN,car,car,0.7,0511_hp_dnn_0.7_car_10_n03100240_7703.png
clip,1,512,NaN,knife,bear,0.55,0512_hp_dnn_0.55_bear_10_n02134084_13434.png
clip,1,513,NaN,dog,dog,inf,0513_hp_dnn_inf_dog_10_n02111500_4280.png
clip,1,514,NaN,knife,bear,0.55,0514_hp_dnn_0.55_bear_10_n02132136_23853.png
clip,1,515,NaN,bicycle,bicycle,1.5,0515_hp_dnn_1.5_bicycle_10_n03792782_17193.png
clip,1,516,NaN,dog,dog,1,0516_hp_dnn_1_dog_10_n02102177_5770.png
clip,1,517,NaN,elephant,bear,0.7,0517_hp_dnn_0.7_bear_10_n02132136_2279.png
clip,1,518,NaN,bear,bear,inf,0518_hp_dnn_inf_bear_10_n02134084_6910.png
clip,1,519,NaN,knife,oven,0.7,0519_hp_dnn_0.7_oven_10_n04111531_9041.png
clip,1,520,NaN,cat,cat,1,0520_hp_dnn_1_cat_10_n02123159_5424.png
clip,1,521,NaN,bicycle,bicycle,0.45,0521_hp_dnn_0.45_bicycle_10_n02835271_672.png
clip,1,522,NaN,car,airplane,0.45,0522_hp_dnn_0.45_airplane_10_n02690373_18111.png
clip,1,523,NaN,clock,clock,1,0523_hp_dnn_1_clock_10_n04548280_3013.png
clip,1,524,NaN,elephant,dog,0.45,0524_hp_dnn_0.45_dog_10_n02094258_4142.png
clip,1,525,NaN,clock,clock,3,0525_hp_dnn_3_clock_10_n04548280_6919.png
clip,1,526,NaN,elephant,cat,0.4,0526_hp_dnn_0.4_cat_10_n02124075_16814.png
clip,1,527,NaN,clock,clock,1,0527_hp_dnn_1_clock_10_n04548280_3342.png
clip,1,528,NaN,boat,boat,1,0528_hp_dnn_1_boat_10_n04612504_31680.png
clip,1,529,NaN,keyboard,keyboard,inf,0529_hp_dnn_inf_keyboard_10_n03085013_7962.png
clip,1,530,NaN,bicycle,bicycle,3,0530_hp_dnn_3_bicycle_10_n02835271_949.png
clip,1,531,NaN,keyboard,keyboard,1,0531_hp_dnn_1_keyboard_10_n04505470_4228.png
clip,1,532,NaN,clock,boat,0.7,0532_hp_dnn_0.7_boat_10_n03344393_3219.png
clip,1,533,NaN,bear,elephant,3,0533_hp_dnn_3_elephant_10_n02504458_3399.png
clip,1,534,NaN,bird,bird,0.55,0534_hp_dnn_0.55_bird_10_n01616318_12459.png
clip,1,535,NaN,elephant,elephant,0.4,0535_hp_dnn_0.4_elephant_10_n02504013_1846.png
clip,1,536,NaN,knife,bicycle,0.55,0536_hp_dnn_0.55_bicycle_10_n03792782_5097.png
clip,1,537,NaN,chair,bottle,3,0537_hp_dnn_3_bottle_10_n02823428_5115.png
clip,1,538,NaN,keyboard,keyboard,inf,0538_hp_dnn_inf_keyboard_10_n03085013_21282.png
clip,1,539,NaN,clock,oven,0.4,0539_hp_dnn_0.4_oven_10_n04111531_1815.png
clip,1,540,NaN,knife,chair,1,0540_hp_dnn_1_chair_10_n02791124_5268.png
clip,1,541,NaN,knife,airplane,0.55,0541_hp_dnn_0.55_airplane_10_n02690373_3035.png
clip,1,542,NaN,dog,dog,inf,0542_hp_dnn_inf_dog_10_n02107683_1460.png
clip,1,543,NaN,boat,boat,inf,0543_hp_dnn_inf_boat_10_n02951358_31813.png
clip,1,544,NaN,elephant,bird,0.4,0544_hp_dnn_0.4_bird_10_n01797886_16808.png
clip,1,545,NaN,elephant,elephant,0.45,0545_hp_dnn_0.45_elephant_10_n02504458_4767.png
clip,1,546,NaN,knife,knife,3,0546_hp_dnn_3_knife_10_n03041632_41493.png
clip,1,547,NaN,elephant,elephant,3,0547_hp_dnn_3_elephant_10_n02504458_3329.png
clip,1,548,NaN,knife,cat,0.45,0548_hp_dnn_0.45_cat_10_n02124075_12467.png
clip,1,549,NaN,knife,truck,0.7,0549_hp_dnn_0.7_truck_10_n03417042_6467.png
clip,1,550,NaN,airplane,airplane,inf,0550_hp_dnn_inf_airplane_10_n02690373_734.png
clip,1,551,NaN,car,car,0.4,0551_hp_dnn_0.4_car_10_n02814533_85296.png
clip,1,552,NaN,elephant,elephant,0.7,0552_hp_dnn_0.7_elephant_10_n02504013_18005.png
clip,1,553,NaN,clock,clock,0.45,0553_hp_dnn_0.45_clock_10_n02708093_1495.png
clip,1,554,NaN,car,car,1.5,0554_hp_dnn_1.5_car_10_n04285008_3462.png
clip,1,555,NaN,car,truck,0.4,0555_hp_dnn_0.4_truck_10_n03417042_22297.png
clip,1,556,NaN,chair,chair,3,0556_hp_dnn_3_chair_10_n04429376_7279.png
clip,1,557,NaN,bicycle,bicycle,3,0557_hp_dnn_3_bicycle_10_n02835271_6919.png
clip,1,558,NaN,knife,oven,0.55,0558_hp_dnn_0.55_oven_10_n04111531_2260.png
clip,1,559,NaN,elephant,bear,0.7,0559_hp_dnn_0.7_bear_10_n02134084_5794.png
clip,1,560,NaN,airplane,airplane,0.7,0560_hp_dnn_0.7_airplane_10_n02690373_10397.png
clip,1,561,NaN,knife,elephant,0.4,0561_hp_dnn_0.4_elephant_10_n02504458_2041.png
clip,1,562,NaN,chair,chair,1,0562_hp_dnn_1_chair_10_n04429376_7732.png
clip,1,563,NaN,bicycle,airplane,0.4,0563_hp_dnn_0.4_airplane_10_n02690373_4788.png
clip,1,564,NaN,knife,dog,0.55,0564_hp_dnn_0.55_dog_10_n02097474_2799.png
clip,1,565,NaN,knife,bear,1.5,0565_hp_dnn_1.5_bear_10_n02134084_17849.png
clip,1,566,NaN,dog,dog,inf,0566_hp_dnn_inf_dog_10_n02086646_7064.png
clip,1,567,NaN,truck,truck,0.55,0567_hp_dnn_0.55_truck_10_n03417042_7061.png
clip,1,568,NaN,knife,bird,1,0568_hp_dnn_1_bird_10_n01820546_3605.png
clip,1,569,NaN,clock,bear,0.4,0569_hp_dnn_0.4_bear_10_n02133161_2813.png
clip,1,570,NaN,elephant,bear,0.45,0570_hp_dnn_0.45_bear_10_n02132136_16636.png
clip,1,571,NaN,chair,oven,1.5,0571_hp_dnn_1.5_oven_10_n04111531_14959.png
clip,1,572,NaN,knife,cat,0.45,0572_hp_dnn_0.45_cat_10_n02124075_5453.png
clip,1,573,NaN,knife,cat,1,0573_hp_dnn_1_cat_10_n02124075_11528.png
clip,1,574,NaN,knife,cat,1,0574_hp_dnn_1_cat_10_n02123159_3454.png
clip,1,575,NaN,bear,bird,0.45,0575_hp_dnn_0.45_bird_10_n02025239_2227.png
clip,1,576,NaN,clock,chair,0.7,0576_hp_dnn_0.7_chair_10_n03376595_12256.png
clip,1,577,NaN,clock,clock,1.5,0577_hp_dnn_1.5_clock_10_n02708093_6591.png
clip,1,578,NaN,chair,chair,0.55,0578_hp_dnn_0.55_chair_10_n04099969_34144.png
clip,1,579,NaN,knife,bear,0.55,0579_hp_dnn_0.55_bear_10_n02132136_3563.png
clip,1,580,NaN,bear,elephant,1,0580_hp_dnn_1_elephant_10_n02504013_6671.png
clip,1,581,NaN,clock,keyboard,0.7,0581_hp_dnn_0.7_keyboard_10_n03085013_22067.png
clip,1,582,NaN,truck,truck,inf,0582_hp_dnn_inf_truck_10_n03796401_1458.png
clip,1,583,NaN,knife,bottle,0.45,0583_hp_dnn_0.45_bottle_10_n04591713_807.png
clip,1,584,NaN,clock,car,1,0584_hp_dnn_1_car_10_n02814533_22693.png
clip,1,585,NaN,car,car,0.7,0585_hp_dnn_0.7_car_10_n02814533_5278.png
clip,1,586,NaN,boat,boat,1.5,0586_hp_dnn_1.5_boat_10_n03662601_10240.png
clip,1,587,NaN,airplane,airplane,inf,0587_hp_dnn_inf_airplane_10_n02690373_9673.png
clip,1,588,NaN,bird,bird,0.7,0588_hp_dnn_0.7_bird_10_n02009229_6029.png
clip,1,589,NaN,clock,clock,0.4,0589_hp_dnn_0.4_clock_10_n02708093_2580.png
clip,1,590,NaN,elephant,elephant,0.4,0590_hp_dnn_0.4_elephant_10_n02504013_295.png
clip,1,591,NaN,car,car,0.7,0591_hp_dnn_0.7_car_10_n04285008_9893.png
clip,1,592,NaN,airplane,chair,1.5,0592_hp_dnn_1.5_chair_10_n03376595_6850.png
clip,1,593,NaN,boat,boat,3,0593_hp_dnn_3_boat_10_n03662601_15713.png
clip,1,594,NaN,elephant,clock,0.4,0594_hp_dnn_0.4_clock_10_n04548280_9867.png
clip,1,595,NaN,airplane,airplane,1.5,0595_hp_dnn_1.5_airplane_10_n02690373_1450.png
clip,1,596,NaN,knife,bicycle,0.45,0596_hp_dnn_0.45_bicycle_10_n03792782_7787.png
clip,1,597,NaN,bicycle,chair,0.45,0597_hp_dnn_0.45_chair_10_n04099969_1219.png
clip,1,598,NaN,keyboard,keyboard,0.55,0598_hp_dnn_0.55_keyboard_10_n03085013_8325.png
clip,1,599,NaN,knife,bicycle,0.55,0599_hp_dnn_0.55_bicycle_10_n02835271_14732.png
clip,1,600,NaN,airplane,airplane,1.5,0600_hp_dnn_1.5_airplane_10_n02690373_4176.png
clip,1,601,NaN,knife,bird,1,0601_hp_dnn_1_bird_10_n01534433_905.png
clip,1,602,NaN,truck,truck,1.5,0602_hp_dnn_1.5_truck_10_n04467665_45306.png
clip,1,603,NaN,elephant,elephant,3,0603_hp_dnn_3_elephant_10_n02504458_1617.png
clip,1,604,NaN,clock,oven,0.45,0604_hp_dnn_0.45_oven_10_n04111531_4148.png
clip,1,605,NaN,knife,bird,0.55,0605_hp_dnn_0.55_bird_10_n02009912_91.png
clip,1,606,NaN,knife,knife,3,0606_hp_dnn_3_knife_10_n03041632_33739.png
clip,1,607,NaN,airplane,airplane,1,0607_hp_dnn_1_airplane_10_n02690373_9318.png
clip,1,608,NaN,bicycle,bird,0.4,0608_hp_dnn_0.4_bird_10_n01828970_8669.png
clip,1,609,NaN,truck,truck,1.5,0609_hp_dnn_1.5_truck_10_n04467665_58762.png
clip,1,610,NaN,car,car,3,0610_hp_dnn_3_car_10_n03100240_11417.png
clip,1,611,NaN,bicycle,bicycle,inf,0611_hp_dnn_inf_bicycle_10_n03792782_16179.png
clip,1,612,NaN,car,car,1,0612_hp_dnn_1_car_10_n04285008_8444.png
clip,1,613,NaN,chair,chair,inf,0613_hp_dnn_inf_chair_10_n02791124_3240.png
clip,1,614,NaN,knife,bicycle,0.7,0614_hp_dnn_0.7_bicycle_10_n02835271_1035.png
clip,1,615,NaN,bicycle,bicycle,0.55,0615_hp_dnn_0.55_bicycle_10_n02835271_6167.png
clip,1,616,NaN,oven,bottle,3,0616_hp_dnn_3_bottle_10_n02823428_6830.png
clip,1,617,NaN,knife,knife,0.45,0617_hp_dnn_0.45_knife_10_n03041632_17349.png
clip,1,618,NaN,airplane,airplane,inf,0618_hp_dnn_inf_airplane_10_n02690373_2024.png
clip,1,619,NaN,knife,bottle,1,0619_hp_dnn_1_bottle_10_n02823428_8034.png
clip,1,620,NaN,truck,chair,1,0620_hp_dnn_1_chair_10_n02791124_6786.png
clip,1,621,NaN,knife,chair,0.45,0621_hp_dnn_0.45_chair_10_n03376595_10689.png
clip,1,622,NaN,clock,knife,0.4,0622_hp_dnn_0.4_knife_10_n03041632_22734.png
clip,1,623,NaN,knife,oven,0.4,0623_hp_dnn_0.4_oven_10_n04111531_10521.png
clip,1,624,NaN,bird,bird,inf,0624_hp_dnn_inf_bird_10_n02007558_37147.png
clip,1,625,NaN,oven,oven,3,0625_hp_dnn_3_oven_10_n04111531_14753.png
clip,1,626,NaN,clock,bottle,0.7,0626_hp_dnn_0.7_bottle_10_n03983396_4990.png
clip,1,627,NaN,elephant,cat,0.45,0627_hp_dnn_0.45_cat_10_n02125311_25104.png
clip,1,628,NaN,truck,truck,0.55,0628_hp_dnn_0.55_truck_10_n03417042_5600.png
clip,1,629,NaN,clock,cat,0.55,0629_hp_dnn_0.55_cat_10_n02125311_34158.png
clip,1,630,NaN,knife,knife,1,0630_hp_dnn_1_knife_10_n03041632_41077.png
clip,1,631,NaN,airplane,bicycle,0.45,0631_hp_dnn_0.45_bicycle_10_n03792782_19295.png
clip,1,632,NaN,elephant,elephant,1,0632_hp_dnn_1_elephant_10_n02504013_7500.png
clip,1,633,NaN,elephant,chair,0.4,0633_hp_dnn_0.4_chair_10_n04429376_20837.png
clip,1,634,NaN,oven,oven,0.55,0634_hp_dnn_0.55_oven_10_n04111531_2371.png
clip,1,635,NaN,knife,bear,0.45,0635_hp_dnn_0.45_bear_10_n02132136_2108.png
clip,1,636,NaN,airplane,airplane,0.55,0636_hp_dnn_0.55_airplane_10_n02690373_7600.png
clip,1,637,NaN,clock,bicycle,0.4,0637_hp_dnn_0.4_bicycle_10_n03792782_8329.png
clip,1,638,NaN,car,airplane,0.7,0638_hp_dnn_0.7_airplane_10_n02690373_9712.png
clip,1,639,NaN,car,car,inf,0639_hp_dnn_inf_car_10_n02814533_43694.png
clip,1,640,NaN,elephant,bird,0.4,0640_hp_dnn_0.4_bird_10_n01828970_454.png
clip,1,641,NaN,cat,bear,1,0641_hp_dnn_1_bear_10_n02132136_1141.png
clip,1,642,NaN,clock,clock,0.7,0642_hp_dnn_0.7_clock_10_n03196217_6217.png
clip,1,643,NaN,truck,truck,1,0643_hp_dnn_1_truck_10_n03417042_4520.png
clip,1,644,NaN,elephant,dog,3,0644_hp_dnn_3_dog_10_n02093256_2633.png
clip,1,645,NaN,elephant,dog,0.4,0645_hp_dnn_0.4_dog_10_n02108000_7066.png
clip,1,646,NaN,dog,dog,1.5,0646_hp_dnn_1.5_dog_10_n02099601_2805.png
clip,1,647,NaN,dog,dog,3,0647_hp_dnn_3_dog_10_n02091244_3193.png
clip,1,648,NaN,knife,bicycle,1.5,0648_hp_dnn_1.5_bicycle_10_n02835271_358.png
clip,1,649,NaN,boat,boat,0.7,0649_hp_dnn_0.7_boat_10_n03344393_9459.png
clip,1,650,NaN,truck,truck,1,0650_hp_dnn_1_truck_10_n04467665_5053.png
clip,1,651,NaN,truck,truck,0.45,0651_hp_dnn_0.45_truck_10_n04467665_36855.png
clip,1,652,NaN,car,car,0.45,0652_hp_dnn_0.45_car_10_n02814533_72255.png
clip,1,653,NaN,airplane,airplane,1.5,0653_hp_dnn_1.5_airplane_10_n02690373_5789.png
clip,1,654,NaN,boat,oven,0.4,0654_hp_dnn_0.4_oven_10_n04111531_9224.png
clip,1,655,NaN,bird,bird,inf,0655_hp_dnn_inf_bird_10_n01798484_4076.png
clip,1,656,NaN,elephant,boat,1,0656_hp_dnn_1_boat_10_n04612504_1869.png
clip,1,657,NaN,elephant,cat,0.45,0657_hp_dnn_0.45_cat_10_n02123394_7335.png
clip,1,658,NaN,boat,boat,1,0658_hp_dnn_1_boat_10_n04612504_11379.png
clip,1,659,NaN,bicycle,bicycle,1,0659_hp_dnn_1_bicycle_10_n03792782_18496.png
clip,1,660,NaN,dog,bear,inf,0660_hp_dnn_inf_bear_10_n02133161_8471.png
clip,1,661,NaN,keyboard,keyboard,0.7,0661_hp_dnn_0.7_keyboard_10_n04505470_3929.png
clip,1,662,NaN,car,car,0.55,0662_hp_dnn_0.55_car_10_n03100240_6822.png
clip,1,663,NaN,clock,keyboard,0.4,0663_hp_dnn_0.4_keyboard_10_n04505470_207.png
clip,1,664,NaN,elephant,elephant,0.55,0664_hp_dnn_0.55_elephant_10_n02504458_7221.png
clip,1,665,NaN,chair,bottle,1.5,0665_hp_dnn_1.5_bottle_10_n03983396_2091.png
clip,1,666,NaN,elephant,knife,0.4,0666_hp_dnn_0.4_knife_10_n03041632_30602.png
clip,1,667,NaN,clock,oven,0.45,0667_hp_dnn_0.45_oven_10_n04111531_7050.png
clip,1,668,NaN,car,car,0.45,0668_hp_dnn_0.45_car_10_n02814533_30383.png
clip,1,669,NaN,cat,cat,0.7,0669_hp_dnn_0.7_cat_10_n02124075_7680.png
clip,1,670,NaN,knife,oven,0.55,0670_hp_dnn_0.55_oven_10_n04111531_3265.png
clip,1,671,NaN,cat,oven,1.5,0671_hp_dnn_1.5_oven_10_n04111531_49.png
clip,1,672,NaN,chair,chair,inf,0672_hp_dnn_inf_chair_10_n02791124_8099.png
clip,1,673,NaN,clock,bottle,0.7,0673_hp_dnn_0.7_bottle_10_n03937543_9606.png
clip,1,674,NaN,cat,cat,inf,0674_hp_dnn_inf_cat_10_n02123045_4644.png
clip,1,675,NaN,knife,chair,0.55,0675_hp_dnn_0.55_chair_10_n03376595_12251.png
clip,1,676,NaN,chair,chair,0.7,0676_hp_dnn_0.7_chair_10_n04429376_52822.png
clip,1,677,NaN,chair,chair,1.5,0677_hp_dnn_1.5_chair_10_n04429376_55898.png
clip,1,678,NaN,bicycle,bicycle,1.5,0678_hp_dnn_1.5_bicycle_10_n03792782_5106.png
clip,1,679,NaN,elephant,bear,0.4,0679_hp_dnn_0.4_bear_10_n02134418_5735.png
clip,1,680,NaN,elephant,oven,0.45,0680_hp_dnn_0.45_oven_10_n04111531_3348.png
clip,1,681,NaN,boat,boat,0.7,0681_hp_dnn_0.7_boat_10_n04612504_37043.png
clip,1,682,NaN,truck,car,inf,0682_hp_dnn_inf_car_10_n02814533_40315.png
clip,1,683,NaN,clock,clock,0.45,0683_hp_dnn_0.45_clock_10_n04548280_3782.png
clip,1,684,NaN,knife,knife,1.5,0684_hp_dnn_1.5_knife_10_n03041632_36907.png
clip,1,685,NaN,car,car,inf,0685_hp_dnn_inf_car_10_n04285008_6587.png
clip,1,686,NaN,knife,oven,0.45,0686_hp_dnn_0.45_oven_10_n04111531_9498.png
clip,1,687,NaN,clock,clock,0.7,0687_hp_dnn_0.7_clock_10_n03196217_3361.png
clip,1,688,NaN,clock,truck,0.45,0688_hp_dnn_0.45_truck_10_n04467665_40002.png
clip,1,689,NaN,keyboard,keyboard,0.7,0689_hp_dnn_0.7_keyboard_10_n03085013_20805.png
clip,1,690,NaN,clock,clock,3,0690_hp_dnn_3_clock_10_n04548280_9816.png
clip,1,691,NaN,clock,truck,0.4,0691_hp_dnn_0.4_truck_10_n03417042_2293.png
clip,1,692,NaN,dog,dog,1.5,0692_hp_dnn_1.5_dog_10_n02086910_730.png
clip,1,693,NaN,truck,truck,3,0693_hp_dnn_3_truck_10_n04467665_25059.png
clip,1,694,NaN,keyboard,keyboard,3,0694_hp_dnn_3_keyboard_10_n03085013_5738.png
clip,1,695,NaN,bottle,bottle,0.7,0695_hp_dnn_0.7_bottle_10_n04557648_3775.png
clip,1,696,NaN,elephant,bear,0.45,0696_hp_dnn_0.45_bear_10_n02134084_22801.png
clip,1,697,NaN,airplane,airplane,3,0697_hp_dnn_3_airplane_10_n02690373_3468.png
clip,1,698,NaN,clock,clock,0.45,0698_hp_dnn_0.45_clock_10_n04548280_4713.png
clip,1,699,NaN,elephant,bird,0.4,0699_hp_dnn_0.4_bird_10_n02051845_3351.png
clip,1,700,NaN,elephant,elephant,3,0700_hp_dnn_3_elephant_10_n02504458_6762.png
clip,1,701,NaN,bicycle,bicycle,0.4,0701_hp_dnn_0.4_bicycle_10_n03792782_2327.png
clip,1,702,NaN,knife,bicycle,3,0702_hp_dnn_3_bicycle_10_n03792782_19985.png
clip,1,703,NaN,bear,bear,3,0703_hp_dnn_3_bear_10_n02134084_2970.png
clip,1,704,NaN,clock,truck,0.55,0704_hp_dnn_0.55_truck_10_n03417042_10642.png
clip,1,705,NaN,boat,boat,3,0705_hp_dnn_3_boat_10_n03662601_3938.png
clip,1,706,NaN,clock,chair,0.4,0706_hp_dnn_0.4_chair_10_n02791124_9414.png
clip,1,707,NaN,clock,clock,0.55,0707_hp_dnn_0.55_clock_10_n04548280_3605.png
clip,1,708,NaN,bottle,bottle,0.7,0708_hp_dnn_0.7_bottle_10_n04579145_2196.png
clip,1,709,NaN,knife,knife,0.7,0709_hp_dnn_0.7_knife_10_n03041632_5801.png
clip,1,710,NaN,elephant,boat,0.4,0710_hp_dnn_0.4_boat_10_n02951358_11867.png
clip,1,711,NaN,clock,clock,1,0711_hp_dnn_1_clock_10_n02708093_3266.png
clip,1,712,NaN,knife,bicycle,0.55,0712_hp_dnn_0.55_bicycle_10_n03792782_4251.png
clip,1,713,NaN,bear,bear,1,0713_hp_dnn_1_bear_10_n02132136_11125.png
clip,1,714,NaN,elephant,elephant,3,0714_hp_dnn_3_elephant_10_n02504458_6821.png
clip,1,715,NaN,truck,truck,3,0715_hp_dnn_3_truck_10_n04467665_77214.png
clip,1,716,NaN,clock,clock,1.5,0716_hp_dnn_1.5_clock_10_n03196217_10190.png
clip,1,717,NaN,elephant,elephant,inf,0717_hp_dnn_inf_elephant_10_n02504458_1506.png
clip,1,718,NaN,boat,boat,inf,0718_hp_dnn_inf_boat_10_n02951358_4189.png
clip,1,719,NaN,knife,bear,0.55,0719_hp_dnn_0.55_bear_10_n02132136_9311.png
clip,1,720,NaN,airplane,airplane,inf,0720_hp_dnn_inf_airplane_10_n02690373_5564.png
clip,1,721,NaN,airplane,airplane,0.45,0721_hp_dnn_0.45_airplane_10_n02690373_798.png
clip,1,722,NaN,airplane,airplane,0.7,0722_hp_dnn_0.7_airplane_10_n02690373_9642.png
clip,1,723,NaN,knife,bear,0.7,0723_hp_dnn_0.7_bear_10_n02132136_19995.png
clip,1,724,NaN,bicycle,bicycle,inf,0724_hp_dnn_inf_bicycle_10_n02835271_14914.png
clip,1,725,NaN,knife,chair,0.55,0725_hp_dnn_0.55_chair_10_n03376595_1862.png
clip,1,726,NaN,bird,bird,0.55,0726_hp_dnn_0.55_bird_10_n01824575_8564.png
clip,1,727,NaN,knife,knife,inf,0727_hp_dnn_inf_knife_10_n03041632_40450.png
clip,1,728,NaN,clock,chair,0.45,0728_hp_dnn_0.45_chair_10_n03376595_8196.png
clip,1,729,NaN,boat,boat,inf,0729_hp_dnn_inf_boat_10_n03662601_5968.png
clip,1,730,NaN,car,car,0.55,0730_hp_dnn_0.55_car_10_n03100240_3241.png
clip,1,731,NaN,cat,cat,inf,0731_hp_dnn_inf_cat_10_n02125311_18354.png
clip,1,732,NaN,knife,oven,0.55,0732_hp_dnn_0.55_oven_10_n04111531_11505.png
clip,1,733,NaN,clock,clock,1,0733_hp_dnn_1_clock_10_n04548280_4229.png
clip,1,734,NaN,car,car,0.55,0734_hp_dnn_0.55_car_10_n02814533_12532.png
clip,1,735,NaN,chair,chair,1.5,0735_hp_dnn_1.5_chair_10_n03376595_99.png
clip,1,736,NaN,clock,keyboard,0.4,0736_hp_dnn_0.4_keyboard_10_n04505470_9762.png
clip,1,737,NaN,bear,bear,3,0737_hp_dnn_3_bear_10_n02132136_7647.png
clip,1,738,NaN,knife,bottle,0.45,0738_hp_dnn_0.45_bottle_10_n04560804_19619.png
clip,1,739,NaN,clock,truck,0.7,0739_hp_dnn_0.7_truck_10_n03417042_4292.png
clip,1,740,NaN,elephant,elephant,0.4,0740_hp_dnn_0.4_elephant_10_n02504458_3163.png
clip,1,741,NaN,elephant,elephant,1.5,0741_hp_dnn_1.5_elephant_10_n02504458_7144.png
clip,1,742,NaN,knife,bear,0.55,0742_hp_dnn_0.55_bear_10_n02133161_4049.png
clip,1,743,NaN,chair,bottle,0.7,0743_hp_dnn_0.7_bottle_10_n04591713_7074.png
clip,1,744,NaN,bear,bear,inf,0744_hp_dnn_inf_bear_10_n02132136_13370.png
clip,1,745,NaN,clock,clock,inf,0745_hp_dnn_inf_clock_10_n03196217_4844.png
clip,1,746,NaN,car,car,3,0746_hp_dnn_3_car_10_n04285008_5467.png
clip,1,747,NaN,chair,chair,1,0747_hp_dnn_1_chair_10_n04429376_24578.png
clip,1,748,NaN,bird,bird,3,0748_hp_dnn_3_bird_10_n02037110_11362.png
clip,1,749,NaN,boat,boat,3,0749_hp_dnn_3_boat_10_n03344393_5801.png
clip,1,750,NaN,airplane,airplane,0.7,0750_hp_dnn_0.7_airplane_10_n02690373_8611.png
clip,1,751,NaN,elephant,elephant,0.7,0751_hp_dnn_0.7_elephant_10_n02504013_21877.png
clip,1,752,NaN,chair,keyboard,1,0752_hp_dnn_1_keyboard_10_n03085013_20483.png
clip,1,753,NaN,bottle,bottle,0.7,0753_hp_dnn_0.7_bottle_10_n04579145_3660.png
clip,1,754,NaN,truck,truck,inf,0754_hp_dnn_inf_truck_10_n04467665_83611.png
clip,1,755,NaN,boat,cat,0.4,0755_hp_dnn_0.4_cat_10_n02123159_6381.png
clip,1,756,NaN,boat,truck,0.55,0756_hp_dnn_0.55_truck_10_n04467665_67853.png
clip,1,757,NaN,keyboard,keyboard,0.55,0757_hp_dnn_0.55_keyboard_10_n03085013_24510.png
clip,1,758,NaN,airplane,airplane,1,0758_hp_dnn_1_airplane_10_n02690373_4202.png
clip,1,759,NaN,bicycle,bicycle,inf,0759_hp_dnn_inf_bicycle_10_n02835271_8512.png
clip,1,760,NaN,bird,bird,1.5,0760_hp_dnn_1.5_bird_10_n01537544_1126.png
clip,1,761,NaN,bicycle,bicycle,0.55,0761_hp_dnn_0.55_bicycle_10_n02835271_12123.png
clip,1,762,NaN,knife,oven,0.7,0762_hp_dnn_0.7_oven_10_n04111531_537.png
clip,1,763,NaN,elephant,elephant,1,0763_hp_dnn_1_elephant_10_n02504013_6904.png
clip,1,764,NaN,bottle,bottle,0.55,0764_hp_dnn_0.55_bottle_10_n03937543_4098.png
clip,1,765,NaN,clock,bottle,0.4,0765_hp_dnn_0.4_bottle_10_n04591713_7528.png
clip,1,766,NaN,elephant,elephant,inf,0766_hp_dnn_inf_elephant_10_n02504013_648.png
clip,1,767,NaN,chair,chair,inf,0767_hp_dnn_inf_chair_10_n03376595_9926.png
clip,1,768,NaN,knife,oven,1,0768_hp_dnn_1_oven_10_n04111531_5781.png
clip,1,769,NaN,chair,chair,3,0769_hp_dnn_3_chair_10_n02791124_1023.png
clip,1,770,NaN,dog,dog,inf,0770_hp_dnn_inf_dog_10_n02099429_1915.png
clip,1,771,NaN,elephant,bear,0.7,0771_hp_dnn_0.7_bear_10_n02134084_5004.png
clip,1,772,NaN,knife,knife,0.55,0772_hp_dnn_0.55_knife_10_n03041632_86554.png
clip,1,773,NaN,oven,oven,inf,0773_hp_dnn_inf_oven_10_n04111531_5802.png
clip,1,774,NaN,car,car,3,0774_hp_dnn_3_car_10_n04285008_6030.png
clip,1,775,NaN,knife,knife,1,0775_hp_dnn_1_knife_10_n03041632_39836.png
clip,1,776,NaN,knife,oven,1.5,0776_hp_dnn_1.5_oven_10_n04111531_6810.png
clip,1,777,NaN,car,car,3,0777_hp_dnn_3_car_10_n03100240_2420.png
clip,1,778,NaN,keyboard,keyboard,3,0778_hp_dnn_3_keyboard_10_n03085013_19401.png
clip,1,779,NaN,chair,chair,inf,0779_hp_dnn_inf_chair_10_n04099969_7399.png
clip,1,780,NaN,keyboard,keyboard,0.4,0780_hp_dnn_0.4_keyboard_10_n03085013_20736.png
clip,1,781,NaN,knife,oven,0.7,0781_hp_dnn_0.7_oven_10_n04111531_686.png
clip,1,782,NaN,elephant,bear,0.45,0782_hp_dnn_0.45_bear_10_n02132136_2875.png
clip,1,783,NaN,bicycle,bicycle,1,0783_hp_dnn_1_bicycle_10_n02835271_1525.png
clip,1,784,NaN,elephant,elephant,inf,0784_hp_dnn_inf_elephant_10_n02504013_6769.png
clip,1,785,NaN,cat,cat,3,0785_hp_dnn_3_cat_10_n02124075_9613.png
clip,1,786,NaN,knife,cat,0.55,0786_hp_dnn_0.55_cat_10_n02125311_15099.png
clip,1,787,NaN,truck,truck,1,0787_hp_dnn_1_truck_10_n04467665_7069.png
clip,1,788,NaN,dog,dog,inf,0788_hp_dnn_inf_dog_10_n02108915_11897.png
clip,1,789,NaN,elephant,bottle,0.4,0789_hp_dnn_0.4_bottle_10_n04557648_1107.png
clip,1,790,NaN,clock,bottle,0.55,0790_hp_dnn_0.55_bottle_10_n03937543_2874.png
clip,1,791,NaN,bicycle,truck,0.45,0791_hp_dnn_0.45_truck_10_n04467665_46192.png
clip,1,792,NaN,elephant,elephant,0.4,0792_hp_dnn_0.4_elephant_10_n02504458_63.png
clip,1,793,NaN,knife,oven,0.45,0793_hp_dnn_0.45_oven_10_n04111531_4346.png
clip,1,794,NaN,knife,chair,0.45,0794_hp_dnn_0.45_chair_10_n03376595_14970.png
clip,1,795,NaN,car,airplane,0.45,0795_hp_dnn_0.45_airplane_10_n02690373_8204.png
clip,1,796,NaN,clock,airplane,0.4,0796_hp_dnn_0.4_airplane_10_n02690373_20042.png
clip,1,797,NaN,elephant,bottle,0.4,0797_hp_dnn_0.4_bottle_10_n03983396_1151.png
clip,1,798,NaN,knife,dog,0.7,0798_hp_dnn_0.7_dog_10_n02096051_988.png
clip,1,799,NaN,elephant,boat,0.4,0799_hp_dnn_0.4_boat_10_n03344393_7394.png
clip,1,800,NaN,clock,clock,1.5,0800_hp_dnn_1.5_clock_10_n03196217_8943.png
clip,1,801,NaN,bicycle,bicycle,0.55,0801_hp_dnn_0.55_bicycle_10_n03792782_9412.png
clip,1,802,NaN,bicycle,bear,3,0802_hp_dnn_3_bear_10_n02132136_2236.png
clip,1,803,NaN,cat,cat,1,0803_hp_dnn_1_cat_10_n02125311_12070.png
clip,1,804,NaN,cat,cat,3,0804_hp_dnn_3_cat_10_n02124075_5631.png
clip,1,805,NaN,elephant,dog,0.7,0805_hp_dnn_0.7_dog_10_n02101006_16129.png
clip,1,806,NaN,cat,boat,0.4,0806_hp_dnn_0.4_boat_10_n03344393_4509.png
clip,1,807,NaN,bird,bird,3,0807_hp_dnn_3_bird_10_n01514859_8585.png
clip,1,808,NaN,elephant,bird,0.4,0808_hp_dnn_0.4_bird_10_n02011460_19684.png
clip,1,809,NaN,boat,boat,0.4,0809_hp_dnn_0.4_boat_10_n02951358_343.png
clip,1,810,NaN,keyboard,keyboard,1.5,0810_hp_dnn_1.5_keyboard_10_n04505470_5275.png
clip,1,811,NaN,elephant,elephant,0.55,0811_hp_dnn_0.55_elephant_10_n02504013_407.png
clip,1,812,NaN,bird,bird,3,0812_hp_dnn_3_bird_10_n02037110_32120.png
clip,1,813,NaN,clock,clock,1,0813_hp_dnn_1_clock_10_n03196217_5079.png
clip,1,814,NaN,bird,bird,inf,0814_hp_dnn_inf_bird_10_n01820546_6625.png
clip,1,815,NaN,cat,cat,0.7,0815_hp_dnn_0.7_cat_10_n02123597_22264.png
clip,1,816,NaN,elephant,elephant,1,0816_hp_dnn_1_elephant_10_n02504458_6248.png
clip,1,817,NaN,knife,knife,0.7,0817_hp_dnn_0.7_knife_10_n03041632_91582.png
clip,1,818,NaN,bottle,bottle,1.5,0818_hp_dnn_1.5_bottle_10_n04579145_1174.png
clip,1,819,NaN,boat,car,0.4,0819_hp_dnn_0.4_car_10_n03100240_6836.png
clip,1,820,NaN,truck,truck,1.5,0820_hp_dnn_1.5_truck_10_n03417042_1770.png
clip,1,821,NaN,cat,cat,0.55,0821_hp_dnn_0.55_cat_10_n02125311_22122.png
clip,1,822,NaN,keyboard,keyboard,1.5,0822_hp_dnn_1.5_keyboard_10_n03085013_23583.png
clip,1,823,NaN,bottle,bottle,inf,0823_hp_dnn_inf_bottle_10_n03983396_4996.png
clip,1,824,NaN,bird,bird,3,0824_hp_dnn_3_bird_10_n01828970_15425.png
clip,1,825,NaN,truck,truck,inf,0825_hp_dnn_inf_truck_10_n03417042_8518.png
clip,1,826,NaN,boat,boat,inf,0826_hp_dnn_inf_boat_10_n03662601_4295.png
clip,1,827,NaN,keyboard,keyboard,0.7,0827_hp_dnn_0.7_keyboard_10_n04505470_4569.png
clip,1,828,NaN,airplane,airplane,0.7,0828_hp_dnn_0.7_airplane_10_n02690373_6328.png
clip,1,829,NaN,knife,cat,0.55,0829_hp_dnn_0.55_cat_10_n02123045_5080.png
clip,1,830,NaN,oven,oven,3,0830_hp_dnn_3_oven_10_n04111531_4826.png
clip,1,831,NaN,knife,oven,0.7,0831_hp_dnn_0.7_oven_10_n04111531_8688.png
clip,1,832,NaN,bear,bear,1,0832_hp_dnn_1_bear_10_n02134084_3795.png
clip,1,833,NaN,clock,clock,0.55,0833_hp_dnn_0.55_clock_10_n02708093_5236.png
clip,1,834,NaN,keyboard,keyboard,inf,0834_hp_dnn_inf_keyboard_10_n04505470_4138.png
clip,1,835,NaN,keyboard,keyboard,0.4,0835_hp_dnn_0.4_keyboard_10_n03085013_20923.png
clip,1,836,NaN,knife,oven,0.55,0836_hp_dnn_0.55_oven_10_n04111531_3082.png
clip,1,837,NaN,truck,airplane,0.7,0837_hp_dnn_0.7_airplane_10_n02690373_6739.png
clip,1,838,NaN,dog,dog,3,0838_hp_dnn_3_dog_10_n02098286_4467.png
clip,1,839,NaN,elephant,oven,0.4,0839_hp_dnn_0.4_oven_10_n04111531_1330.png
clip,1,840,NaN,chair,chair,0.7,0840_hp_dnn_0.7_chair_10_n03376595_11839.png
clip,1,841,NaN,chair,dog,1,0841_hp_dnn_1_dog_10_n02088238_2234.png
clip,1,842,NaN,knife,knife,3,0842_hp_dnn_3_knife_10_n03041632_31363.png
clip,1,843,NaN,clock,clock,inf,0843_hp_dnn_inf_clock_10_n02708093_6918.png
clip,1,844,NaN,bottle,bottle,inf,0844_hp_dnn_inf_bottle_10_n04557648_91.png
clip,1,845,NaN,car,car,3,0845_hp_dnn_3_car_10_n03100240_1879.png
clip,1,846,NaN,clock,clock,inf,0846_hp_dnn_inf_clock_10_n04548280_7930.png
clip,1,847,NaN,bird,bird,3,0847_hp_dnn_3_bird_10_n01560419_1738.png
clip,1,848,NaN,bicycle,bicycle,1.5,0848_hp_dnn_1.5_bicycle_10_n02835271_1874.png
clip,1,849,NaN,knife,car,0.45,0849_hp_dnn_0.45_car_10_n03100240_12361.png
clip,1,850,NaN,bicycle,bicycle,0.7,0850_hp_dnn_0.7_bicycle_10_n02835271_31150.png
clip,1,851,NaN,bottle,bottle,inf,0851_hp_dnn_inf_bottle_10_n02823428_4245.png
clip,1,852,NaN,car,car,0.45,0852_hp_dnn_0.45_car_10_n03100240_1856.png
clip,1,853,NaN,keyboard,keyboard,1.5,0853_hp_dnn_1.5_keyboard_10_n03085013_26556.png
clip,1,854,NaN,bear,elephant,0.45,0854_hp_dnn_0.45_elephant_10_n02504458_4137.png
clip,1,855,NaN,cat,cat,inf,0855_hp_dnn_inf_cat_10_n02123045_12659.png
clip,1,856,NaN,airplane,boat,0.45,0856_hp_dnn_0.45_boat_10_n03662601_14982.png
clip,1,857,NaN,airplane,airplane,1,0857_hp_dnn_1_airplane_10_n02690373_10210.png
clip,1,858,NaN,clock,airplane,0.45,0858_hp_dnn_0.45_airplane_10_n02690373_18871.png
clip,1,859,NaN,chair,chair,3,0859_hp_dnn_3_chair_10_n04429376_22344.png
clip,1,860,NaN,bear,bear,inf,0860_hp_dnn_inf_bear_10_n02134084_24136.png
clip,1,861,NaN,bicycle,bicycle,1.5,0861_hp_dnn_1.5_bicycle_10_n03792782_11945.png
clip,1,862,NaN,clock,bottle,0.45,0862_hp_dnn_0.45_bottle_10_n04591713_2581.png
clip,1,863,NaN,airplane,airplane,0.45,0863_hp_dnn_0.45_airplane_10_n02690373_2692.png
clip,1,864,NaN,bicycle,boat,0.4,0864_hp_dnn_0.4_boat_10_n04273569_3978.png
clip,1,865,NaN,clock,truck,0.4,0865_hp_dnn_0.4_truck_10_n03796401_4423.png
clip,1,866,NaN,elephant,bird,0.4,0866_hp_dnn_0.4_bird_10_n02002556_121.png
clip,1,867,NaN,keyboard,keyboard,1,0867_hp_dnn_1_keyboard_10_n03085013_24115.png
clip,1,868,NaN,boat,bird,0.55,0868_hp_dnn_0.55_bird_10_n02033041_2082.png
clip,1,869,NaN,car,car,0.45,0869_hp_dnn_0.45_car_10_n04285008_3911.png
clip,1,870,NaN,clock,bottle,0.4,0870_hp_dnn_0.4_bottle_10_n02823428_11.png
clip,1,871,NaN,knife,knife,inf,0871_hp_dnn_inf_knife_10_n03041632_46422.png
clip,1,872,NaN,keyboard,oven,0.7,0872_hp_dnn_0.7_oven_10_n04111531_9838.png
clip,1,873,NaN,airplane,airplane,3,0873_hp_dnn_3_airplane_10_n02690373_3860.png
clip,1,874,NaN,bicycle,bicycle,0.7,0874_hp_dnn_0.7_bicycle_10_n02835271_12666.png
clip,1,875,NaN,airplane,airplane,inf,0875_hp_dnn_inf_airplane_10_n02690373_15411.png
clip,1,876,NaN,bicycle,bicycle,0.7,0876_hp_dnn_0.7_bicycle_10_n02835271_4677.png
clip,1,877,NaN,bird,bird,1,0877_hp_dnn_1_bird_10_n02025239_1443.png
clip,1,878,NaN,bicycle,bicycle,3,0878_hp_dnn_3_bicycle_10_n03792782_6152.png
clip,1,879,NaN,truck,truck,3,0879_hp_dnn_3_truck_10_n03417042_3748.png
clip,1,880,NaN,truck,car,1.5,0880_hp_dnn_1.5_car_10_n03100240_17028.png
clip,1,881,NaN,knife,bicycle,0.7,0881_hp_dnn_0.7_bicycle_10_n03792782_10655.png
clip,1,882,NaN,oven,oven,1.5,0882_hp_dnn_1.5_oven_10_n04111531_1830.png
clip,1,883,NaN,truck,truck,0.45,0883_hp_dnn_0.45_truck_10_n03417042_2315.png
clip,1,884,NaN,clock,oven,0.4,0884_hp_dnn_0.4_oven_10_n04111531_15569.png
clip,1,885,NaN,knife,cat,0.55,0885_hp_dnn_0.55_cat_10_n02123394_3607.png
clip,1,886,NaN,elephant,airplane,0.4,0886_hp_dnn_0.4_airplane_10_n02690373_191.png
clip,1,887,NaN,chair,chair,0.7,0887_hp_dnn_0.7_chair_10_n04099969_16512.png
clip,1,888,NaN,truck,truck,3,0888_hp_dnn_3_truck_10_n03417042_4614.png
clip,1,889,NaN,airplane,airplane,3,0889_hp_dnn_3_airplane_10_n02690373_3153.png
clip,1,890,NaN,boat,boat,3,0890_hp_dnn_3_boat_10_n03662601_2197.png
clip,1,891,NaN,car,car,1.5,0891_hp_dnn_1.5_car_10_n02814533_4501.png
clip,1,892,NaN,knife,knife,3,0892_hp_dnn_3_knife_10_n03041632_18468.png
clip,1,893,NaN,knife,oven,0.7,0893_hp_dnn_0.7_oven_10_n04111531_8117.png
clip,1,894,NaN,bottle,bottle,inf,0894_hp_dnn_inf_bottle_10_n04560804_16526.png
clip,1,895,NaN,boat,boat,3,0895_hp_dnn_3_boat_10_n03662601_34042.png
clip,1,896,NaN,airplane,airplane,0.55,0896_hp_dnn_0.55_airplane_10_n02690373_1663.png
clip,1,897,NaN,clock,truck,0.45,0897_hp_dnn_0.45_truck_10_n03417042_5809.png
clip,1,898,NaN,clock,knife,0.55,0898_hp_dnn_0.55_knife_10_n03041632_5302.png
clip,1,899,NaN,clock,oven,0.55,0899_hp_dnn_0.55_oven_10_n04111531_3977.png
clip,1,900,NaN,boat,chair,inf,0900_hp_dnn_inf_chair_10_n03376595_9165.png
clip,1,901,NaN,car,car,inf,0901_hp_dnn_inf_car_10_n04285008_8921.png
clip,1,902,NaN,elephant,bicycle,0.4,0902_hp_dnn_0.4_bicycle_10_n02835271_9280.png
clip,1,903,NaN,clock,clock,0.4,0903_hp_dnn_0.4_clock_10_n02708093_3743.png
clip,1,904,NaN,boat,boat,0.55,0904_hp_dnn_0.55_boat_10_n04273569_18089.png
clip,1,905,NaN,clock,truck,0.45,0905_hp_dnn_0.45_truck_10_n03417042_2603.png
clip,1,906,NaN,knife,keyboard,0.45,0906_hp_dnn_0.45_keyboard_10_n03085013_5622.png
clip,1,907,NaN,truck,truck,0.55,0907_hp_dnn_0.55_truck_10_n04467665_22585.png
clip,1,908,NaN,bird,bird,1,0908_hp_dnn_1_bird_10_n01560419_3160.png
clip,1,909,NaN,chair,knife,1.5,0909_hp_dnn_1.5_knife_10_n03041632_13518.png
clip,1,910,NaN,knife,dog,0.45,0910_hp_dnn_0.45_dog_10_n02099712_1184.png
clip,1,911,NaN,bicycle,bicycle,0.4,0911_hp_dnn_0.4_bicycle_10_n02835271_1918.png
clip,1,912,NaN,car,car,0.4,0912_hp_dnn_0.4_car_10_n02814533_87793.png
clip,1,913,NaN,knife,bear,0.7,0913_hp_dnn_0.7_bear_10_n02133161_4161.png
clip,1,914,NaN,bird,bird,0.7,0914_hp_dnn_0.7_bird_10_n02009229_851.png
clip,1,915,NaN,bicycle,bicycle,inf,0915_hp_dnn_inf_bicycle_10_n02835271_1299.png
clip,1,916,NaN,truck,truck,3,0916_hp_dnn_3_truck_10_n03796401_7487.png
clip,1,917,NaN,car,airplane,0.45,0917_hp_dnn_0.45_airplane_10_n02690373_1547.png
clip,1,918,NaN,boat,boat,0.55,0918_hp_dnn_0.55_boat_10_n04273569_29711.png
clip,1,919,NaN,bear,oven,1,0919_hp_dnn_1_oven_10_n04111531_2458.png
clip,1,920,NaN,knife,knife,1.5,0920_hp_dnn_1.5_knife_10_n03041632_1201.png
clip,1,921,NaN,oven,oven,3,0921_hp_dnn_3_oven_10_n04111531_2042.png
clip,1,922,NaN,clock,clock,1,0922_hp_dnn_1_clock_10_n04548280_8668.png
clip,1,923,NaN,cat,cat,0.7,0923_hp_dnn_0.7_cat_10_n02123159_7161.png
clip,1,924,NaN,boat,airplane,0.7,0924_hp_dnn_0.7_airplane_10_n02690373_3313.png
clip,1,925,NaN,elephant,elephant,0.45,0925_hp_dnn_0.45_elephant_10_n02504458_6472.png
clip,1,926,NaN,elephant,dog,1.5,0926_hp_dnn_1.5_dog_10_n02110063_11495.png
clip,1,927,NaN,clock,boat,0.55,0927_hp_dnn_0.55_boat_10_n03344393_4502.png
clip,1,928,NaN,chair,chair,1.5,0928_hp_dnn_1.5_chair_10_n03376595_2646.png
clip,1,929,NaN,chair,chair,1,0929_hp_dnn_1_chair_10_n04099969_1040.png
clip,1,930,NaN,knife,bottle,0.45,0930_hp_dnn_0.45_bottle_10_n04557648_413.png
clip,1,931,NaN,oven,oven,3,0931_hp_dnn_3_oven_10_n04111531_2066.png
clip,1,932,NaN,knife,bicycle,1.5,0932_hp_dnn_1.5_bicycle_10_n03792782_66837.png
clip,1,933,NaN,bottle,bottle,0.45,0933_hp_dnn_0.45_bottle_10_n04591713_475.png
clip,1,934,NaN,boat,boat,1.5,0934_hp_dnn_1.5_boat_10_n02951358_30635.png
clip,1,935,NaN,chair,chair,1.5,0935_hp_dnn_1.5_chair_10_n02791124_2825.png
clip,1,936,NaN,elephant,elephant,inf,0936_hp_dnn_inf_elephant_10_n02504013_5839.png
clip,1,937,NaN,clock,clock,1.5,0937_hp_dnn_1.5_clock_10_n04548280_5843.png
clip,1,938,NaN,clock,car,0.45,0938_hp_dnn_0.45_car_10_n04285008_12457.png
clip,1,939,NaN,bottle,bottle,1.5,0939_hp_dnn_1.5_bottle_10_n03983396_12916.png
clip,1,940,NaN,boat,oven,inf,0940_hp_dnn_inf_oven_10_n04111531_8959.png
clip,1,941,NaN,elephant,dog,0.4,0941_hp_dnn_0.4_dog_10_n02107908_10107.png
clip,1,942,NaN,oven,oven,3,0942_hp_dnn_3_oven_10_n04111531_1313.png
clip,1,943,NaN,cat,bear,0.55,0943_hp_dnn_0.55_bear_10_n02133161_489.png
clip,1,944,NaN,knife,knife,0.7,0944_hp_dnn_0.7_knife_10_n03041632_39739.png
clip,1,945,NaN,clock,knife,0.45,0945_hp_dnn_0.45_knife_10_n03041632_26933.png
clip,1,946,NaN,bear,bear,3,0946_hp_dnn_3_bear_10_n02132136_17524.png
clip,1,947,NaN,keyboard,keyboard,0.45,0947_hp_dnn_0.45_keyboard_10_n03085013_11399.png
clip,1,948,NaN,boat,boat,inf,0948_hp_dnn_inf_boat_10_n04273569_3409.png
clip,1,949,NaN,elephant,dog,0.45,0949_hp_dnn_0.45_dog_10_n02111500_2111.png
clip,1,950,NaN,clock,chair,0.45,0950_hp_dnn_0.45_chair_10_n03376595_9851.png
clip,1,951,NaN,elephant,bear,0.55,0951_hp_dnn_0.55_bear_10_n02134084_1949.png
clip,1,952,NaN,elephant,airplane,0.4,0952_hp_dnn_0.4_airplane_10_n02690373_7055.png
clip,1,953,NaN,clock,clock,0.7,0953_hp_dnn_0.7_clock_10_n03196217_219.png
clip,1,954,NaN,elephant,knife,0.4,0954_hp_dnn_0.4_knife_10_n03041632_32197.png
clip,1,955,NaN,dog,dog,1,0955_hp_dnn_1_dog_10_n02105162_1601.png
clip,1,956,NaN,cat,cat,inf,0956_hp_dnn_inf_cat_10_n02125311_1746.png
clip,1,957,NaN,clock,knife,0.45,0957_hp_dnn_0.45_knife_10_n03041632_56172.png
clip,1,958,NaN,airplane,airplane,0.4,0958_hp_dnn_0.4_airplane_10_n02690373_17718.png
clip,1,959,NaN,boat,bird,0.45,0959_hp_dnn_0.45_bird_10_n01855032_4295.png
clip,1,960,NaN,car,car,0.55,0960_hp_dnn_0.55_car_10_n02814533_6178.png
clip,1,961,NaN,elephant,knife,0.45,0961_hp_dnn_0.45_knife_10_n03041632_4443.png
clip,1,962,NaN,cat,cat,1.5,0962_hp_dnn_1.5_cat_10_n02125311_4034.png
clip,1,963,NaN,clock,clock,0.7,0963_hp_dnn_0.7_clock_10_n02708093_7821.png
clip,1,964,NaN,truck,truck,inf,0964_hp_dnn_inf_truck_10_n04467665_55193.png
clip,1,965,NaN,cat,cat,1.5,0965_hp_dnn_1.5_cat_10_n02123394_3813.png
clip,1,966,NaN,knife,cat,0.55,0966_hp_dnn_0.55_cat_10_n02123159_5429.png
clip,1,967,NaN,cat,cat,1.5,0967_hp_dnn_1.5_cat_10_n02123045_12040.png
clip,1,968,NaN,chair,chair,1,0968_hp_dnn_1_chair_10_n02791124_2689.png
clip,1,969,NaN,bird,bird,1,0969_hp_dnn_1_bird_10_n01860187_1191.png
clip,1,970,NaN,knife,truck,3,0970_hp_dnn_3_truck_10_n03417042_3821.png
clip,1,971,NaN,elephant,dog,0.4,0971_hp_dnn_0.4_dog_10_n02112350_279.png
clip,1,972,NaN,cat,cat,0.55,0972_hp_dnn_0.55_cat_10_n02123159_8240.png
clip,1,973,NaN,chair,clock,1.5,0973_hp_dnn_1.5_clock_10_n04548280_6122.png
clip,1,974,NaN,car,car,1,0974_hp_dnn_1_car_10_n04285008_9452.png
clip,1,975,NaN,truck,truck,inf,0975_hp_dnn_inf_truck_10_n04467665_33086.png
clip,1,976,NaN,elephant,elephant,1,0976_hp_dnn_1_elephant_10_n02504458_6301.png
clip,1,977,NaN,boat,boat,0.55,0977_hp_dnn_0.55_boat_10_n03344393_4349.png
clip,1,978,NaN,boat,boat,0.7,0978_hp_dnn_0.7_boat_10_n03344393_3345.png
clip,1,979,NaN,bear,bear,inf,0979_hp_dnn_inf_bear_10_n02133161_4580.png
clip,1,980,NaN,cat,cat,1,0980_hp_dnn_1_cat_10_n02123159_4376.png
clip,1,981,NaN,clock,clock,0.45,0981_hp_dnn_0.45_clock_10_n04548280_2399.png
clip,1,982,NaN,bicycle,bicycle,inf,0982_hp_dnn_inf_bicycle_10_n03792782_6512.png
clip,1,983,NaN,knife,knife,1,0983_hp_dnn_1_knife_10_n03041632_12707.png
clip,1,984,NaN,bottle,bottle,1,0984_hp_dnn_1_bottle_10_n04591713_1649.png
clip,1,985,NaN,boat,boat,1.5,0985_hp_dnn_1.5_boat_10_n02951358_2813.png
clip,1,986,NaN,knife,boat,0.55,0986_hp_dnn_0.55_boat_10_n02951358_9884.png
clip,1,987,NaN,boat,boat,0.7,0987_hp_dnn_0.7_boat_10_n03344393_2941.png
clip,1,988,NaN,knife,cat,0.45,0988_hp_dnn_0.45_cat_10_n02125311_20316.png
clip,1,989,NaN,cat,cat,3,0989_hp_dnn_3_cat_10_n02124075_7144.png
clip,1,990,NaN,cat,cat,3,0990_hp_dnn_3_cat_10_n02124075_14326.png
clip,1,991,NaN,car,car,0.7,0991_hp_dnn_0.7_car_10_n02814533_62413.png
clip,1,992,NaN,clock,keyboard,3,0992_hp_dnn_3_keyboard_10_n03085013_20186.png
clip,1,993,NaN,bicycle,chair,0.4,0993_hp_dnn_0.4_chair_10_n03376595_7699.png
clip,1,994,NaN,dog,dog,3,0994_hp_dnn_3_dog_10_n02100735_8835.png
clip,1,995,NaN,chair,knife,inf,0995_hp_dnn_inf_knife_10_n03041632_23736.png
clip,1,996,NaN,boat,truck,3,0996_hp_dnn_3_truck_10_n03417042_411.png
clip,1,997,NaN,bicycle,bicycle,1,0997_hp_dnn_1_bicycle_10_n02835271_6906.png
clip,1,998,NaN,knife,bear,0.7,0998_hp_dnn_0.7_bear_10_n02134084_1867.png
clip,1,999,NaN,boat,bottle,0.55,0999_hp_dnn_0.55_bottle_10_n02823428_1078.png
clip,1,1000,NaN,truck,truck,0.55,1000_hp_dnn_0.55_truck_10_n03796401_21954.png
clip,1,1001,NaN,elephant,cat,0.45,1001_hp_dnn_0.45_cat_10_n02123394_2084.png
clip,1,1002,NaN,airplane,airplane,1.5,1002_hp_dnn_1.5_airplane_10_n02690373_787.png
clip,1,1003,NaN,airplane,airplane,1.5,1003_hp_dnn_1.5_airplane_10_n02690373_4148.png
clip,1,1004,NaN,chair,chair,0.7,1004_hp_dnn_0.7_chair_10_n04429376_30610.png
clip,1,1005,NaN,knife,keyboard,1,1005_hp_dnn_1_keyboard_10_n04505470_7421.png
clip,1,1006,NaN,bird,bird,1.5,1006_hp_dnn_1.5_bird_10_n02013706_848.png
clip,1,1007,NaN,bird,bird,1.5,1007_hp_dnn_1.5_bird_10_n01828970_9006.png
clip,1,1008,NaN,clock,oven,0.4,1008_hp_dnn_0.4_oven_10_n04111531_669.png
clip,1,1009,NaN,elephant,bird,0.55,1009_hp_dnn_0.55_bird_10_n02006656_11566.png
clip,1,1010,NaN,elephant,elephant,0.4,1010_hp_dnn_0.4_elephant_10_n02504013_3979.png
clip,1,1011,NaN,knife,keyboard,0.7,1011_hp_dnn_0.7_keyboard_10_n04505470_4966.png
clip,1,1012,NaN,bottle,bottle,0.45,1012_hp_dnn_0.45_bottle_10_n03937543_2327.png
clip,1,1013,NaN,knife,elephant,0.7,1013_hp_dnn_0.7_elephant_10_n02504013_10331.png
clip,1,1014,NaN,elephant,elephant,1.5,1014_hp_dnn_1.5_elephant_10_n02504013_701.png
clip,1,1015,NaN,elephant,bird,0.4,1015_hp_dnn_0.4_bird_10_n01829413_5849.png
clip,1,1016,NaN,bear,bear,inf,1016_hp_dnn_inf_bear_10_n02134084_3695.png
clip,1,1017,NaN,cat,cat,1.5,1017_hp_dnn_1.5_cat_10_n02123045_6144.png
clip,1,1018,NaN,boat,airplane,0.7,1018_hp_dnn_0.7_airplane_10_n02690373_18506.png
clip,1,1019,NaN,clock,clock,1.5,1019_hp_dnn_1.5_clock_10_n02708093_3750.png
clip,1,1020,NaN,elephant,airplane,0.45,1020_hp_dnn_0.45_airplane_10_n02690373_111.png
clip,1,1021,NaN,oven,oven,3,1021_hp_dnn_3_oven_10_n04111531_7298.png
clip,1,1022,NaN,clock,clock,inf,1022_hp_dnn_inf_clock_10_n03196217_1550.png
clip,1,1023,NaN,chair,chair,1,1023_hp_dnn_1_chair_10_n04429376_2349.png
clip,1,1024,NaN,clock,airplane,1,1024_hp_dnn_1_airplane_10_n02690373_1167.png
clip,1,1025,NaN,elephant,elephant,0.7,1025_hp_dnn_0.7_elephant_10_n02504458_5308.png
clip,1,1026,NaN,elephant,bear,1,1026_hp_dnn_1_bear_10_n02132136_10559.png
clip,1,1027,NaN,clock,clock,0.7,1027_hp_dnn_0.7_clock_10_n04548280_5038.png
clip,1,1028,NaN,car,car,0.4,1028_hp_dnn_0.4_car_10_n03100240_8885.png
clip,1,1029,NaN,bicycle,bicycle,1,1029_hp_dnn_1_bicycle_10_n02835271_17509.png
clip,1,1030,NaN,clock,clock,0.7,1030_hp_dnn_0.7_clock_10_n02708093_3301.png
clip,1,1031,NaN,bear,bear,1.5,1031_hp_dnn_1.5_bear_10_n02134084_12917.png
clip,1,1032,NaN,bear,bear,1.5,1032_hp_dnn_1.5_bear_10_n02133161_13077.png
clip,1,1033,NaN,boat,bear,3,1033_hp_dnn_3_bear_10_n02132136_15681.png
clip,1,1034,NaN,clock,clock,3,1034_hp_dnn_3_clock_10_n04548280_5013.png
clip,1,1035,NaN,dog,dog,1,1035_hp_dnn_1_dog_10_n02091032_8024.png
clip,1,1036,NaN,bottle,bottle,inf,1036_hp_dnn_inf_bottle_10_n04591713_2052.png
clip,1,1037,NaN,clock,clock,0.55,1037_hp_dnn_0.55_clock_10_n03196217_8072.png
clip,1,1038,NaN,car,car,3,1038_hp_dnn_3_car_10_n02814533_10135.png
clip,1,1039,NaN,car,car,1,1039_hp_dnn_1_car_10_n02814533_5183.png
clip,1,1040,NaN,bird,bird,0.7,1040_hp_dnn_0.7_bird_10_n01855032_3713.png
clip,1,1041,NaN,car,car,3,1041_hp_dnn_3_car_10_n03100240_5796.png
clip,1,1042,NaN,knife,keyboard,0.7,1042_hp_dnn_0.7_keyboard_10_n03085013_25800.png
clip,1,1043,NaN,knife,oven,1.5,1043_hp_dnn_1.5_oven_10_n04111531_8344.png
clip,1,1044,NaN,knife,bottle,1,1044_hp_dnn_1_bottle_10_n03983396_2054.png
clip,1,1045,NaN,elephant,elephant,3,1045_hp_dnn_3_elephant_10_n02504013_6742.png
clip,1,1046,NaN,cat,knife,0.7,1046_hp_dnn_0.7_knife_10_n03041632_24461.png
clip,1,1047,NaN,bicycle,bicycle,0.45,1047_hp_dnn_0.45_bicycle_10_n02835271_4682.png
clip,1,1048,NaN,airplane,car,0.4,1048_hp_dnn_0.4_car_10_n03100240_20489.png
clip,1,1049,NaN,knife,bicycle,0.55,1049_hp_dnn_0.55_bicycle_10_n03792782_10876.png
clip,1,1050,NaN,oven,oven,inf,1050_hp_dnn_inf_oven_10_n04111531_13456.png
clip,1,1051,NaN,keyboard,clock,0.55,1051_hp_dnn_0.55_clock_10_n03196217_1454.png
clip,1,1052,NaN,elephant,bird,0.45,1052_hp_dnn_0.45_bird_10_n01797886_3046.png
clip,1,1053,NaN,oven,oven,1,1053_hp_dnn_1_oven_10_n04111531_15943.png
clip,1,1054,NaN,knife,bottle,0.55,1054_hp_dnn_0.55_bottle_10_n04560804_13142.png
clip,1,1055,NaN,elephant,elephant,1.5,1055_hp_dnn_1.5_elephant_10_n02504013_4560.png
clip,1,1056,NaN,car,keyboard,0.55,1056_hp_dnn_0.55_keyboard_10_n03085013_10035.png
clip,1,1057,NaN,truck,truck,0.7,1057_hp_dnn_0.7_truck_10_n03796401_7199.png
clip,1,1058,NaN,bottle,bottle,1,1058_hp_dnn_1_bottle_10_n04560804_15923.png
clip,1,1059,NaN,car,keyboard,0.55,1059_hp_dnn_0.55_keyboard_10_n03085013_24156.png
clip,1,1060,NaN,knife,dog,0.55,1060_hp_dnn_0.55_dog_10_n02107574_1533.png
clip,1,1061,NaN,airplane,airplane,0.45,1061_hp_dnn_0.45_airplane_10_n02690373_863.png
clip,1,1062,NaN,bottle,bottle,0.55,1062_hp_dnn_0.55_bottle_10_n03983396_1904.png
clip,1,1063,NaN,truck,truck,1,1063_hp_dnn_1_truck_10_n03417042_19481.png
clip,1,1064,NaN,dog,dog,1.5,1064_hp_dnn_1.5_dog_10_n02100236_1502.png
clip,1,1065,NaN,knife,knife,inf,1065_hp_dnn_inf_knife_10_n03041632_96714.png
clip,1,1066,NaN,truck,car,1,1066_hp_dnn_1_car_10_n04285008_6200.png
clip,1,1067,NaN,cat,truck,0.4,1067_hp_dnn_0.4_truck_10_n03417042_10150.png
clip,1,1068,NaN,boat,boat,0.45,1068_hp_dnn_0.45_boat_10_n03344393_2434.png
clip,1,1069,NaN,elephant,cat,0.4,1069_hp_dnn_0.4_cat_10_n02123394_4662.png
clip,1,1070,NaN,car,car,1,1070_hp_dnn_1_car_10_n03100240_17505.png
clip,1,1071,NaN,knife,bear,0.7,1071_hp_dnn_0.7_bear_10_n02132136_3441.png
clip,1,1072,NaN,knife,oven,3,1072_hp_dnn_3_oven_10_n04111531_9342.png
clip,1,1073,NaN,oven,oven,1.5,1073_hp_dnn_1.5_oven_10_n04111531_20407.png
clip,1,1074,NaN,knife,bottle,0.55,1074_hp_dnn_0.55_bottle_10_n04557648_7646.png
clip,1,1075,NaN,clock,clock,3,1075_hp_dnn_3_clock_10_n02708093_3043.png
clip,1,1076,NaN,airplane,airplane,inf,1076_hp_dnn_inf_airplane_10_n02690373_9535.png
clip,1,1077,NaN,car,car,0.55,1077_hp_dnn_0.55_car_10_n03100240_15228.png
clip,1,1078,NaN,car,car,0.4,1078_hp_dnn_0.4_car_10_n04285008_771.png
clip,1,1079,NaN,airplane,airplane,0.55,1079_hp_dnn_0.55_airplane_10_n02690373_7591.png
clip,1,1080,NaN,bottle,bottle,1.5,1080_hp_dnn_1.5_bottle_10_n04560804_13232.png
clip,1,1081,NaN,elephant,cat,0.4,1081_hp_dnn_0.4_cat_10_n02123597_1825.png
clip,1,1082,NaN,knife,bird,1,1082_hp_dnn_1_bird_10_n01558993_12930.png
clip,1,1083,NaN,clock,airplane,0.4,1083_hp_dnn_0.4_airplane_10_n02690373_5475.png
clip,1,1084,NaN,bird,boat,0.7,1084_hp_dnn_0.7_boat_10_n03344393_7179.png
clip,1,1085,NaN,bird,bird,1,1085_hp_dnn_1_bird_10_n02056570_9458.png
clip,1,1086,NaN,elephant,elephant,0.55,1086_hp_dnn_0.55_elephant_10_n02504013_1740.png
clip,1,1087,NaN,oven,oven,inf,1087_hp_dnn_inf_oven_10_n04111531_6454.png
clip,1,1088,NaN,truck,truck,0.45,1088_hp_dnn_0.45_truck_10_n04467665_20933.png
clip,1,1089,NaN,bicycle,bicycle,inf,1089_hp_dnn_inf_bicycle_10_n03792782_47694.png
clip,1,1090,NaN,truck,truck,1,1090_hp_dnn_1_truck_10_n04467665_47602.png
clip,1,1091,NaN,bird,bird,0.55,1091_hp_dnn_0.55_bird_10_n01824575_328.png
clip,1,1092,NaN,chair,chair,1.5,1092_hp_dnn_1.5_chair_10_n04099969_11279.png
clip,1,1093,NaN,elephant,truck,0.4,1093_hp_dnn_0.4_truck_10_n03417042_8334.png
clip,1,1094,NaN,cat,cat,1,1094_hp_dnn_1_cat_10_n02123159_2107.png
clip,1,1095,NaN,bear,bear,1,1095_hp_dnn_1_bear_10_n02132136_9184.png
clip,1,1096,NaN,elephant,elephant,0.45,1096_hp_dnn_0.45_elephant_10_n02504013_4392.png
clip,1,1097,NaN,dog,dog,0.55,1097_hp_dnn_0.55_dog_10_n02109525_13146.png
clip,1,1098,NaN,knife,oven,0.45,1098_hp_dnn_0.45_oven_10_n04111531_12129.png
clip,1,1099,NaN,elephant,boat,0.4,1099_hp_dnn_0.4_boat_10_n03662601_21543.png
clip,1,1100,NaN,cat,cat,inf,1100_hp_dnn_inf_cat_10_n02124075_8754.png
clip,1,1101,NaN,airplane,bottle,0.7,1101_hp_dnn_0.7_bottle_10_n03937543_5166.png
clip,1,1102,NaN,knife,cat,0.7,1102_hp_dnn_0.7_cat_10_n02123159_5993.png
clip,1,1103,NaN,dog,dog,inf,1103_hp_dnn_inf_dog_10_n02099601_5760.png
clip,1,1104,NaN,keyboard,clock,0.4,1104_hp_dnn_0.4_clock_10_n03196217_5365.png
clip,1,1105,NaN,knife,knife,3,1105_hp_dnn_3_knife_10_n03041632_24646.png
clip,1,1106,NaN,keyboard,keyboard,3,1106_hp_dnn_3_keyboard_10_n04505470_10076.png
clip,1,1107,NaN,knife,bear,0.55,1107_hp_dnn_0.55_bear_10_n02132136_20826.png
clip,1,1108,NaN,airplane,airplane,inf,1108_hp_dnn_inf_airplane_10_n02690373_5797.png
clip,1,1109,NaN,car,car,inf,1109_hp_dnn_inf_car_10_n04285008_5838.png
clip,1,1110,NaN,bottle,bottle,3,1110_hp_dnn_3_bottle_10_n04591713_7374.png
clip,1,1111,NaN,airplane,knife,0.45,1111_hp_dnn_0.45_knife_10_n03041632_40652.png
clip,1,1112,NaN,car,car,inf,1112_hp_dnn_inf_car_10_n03100240_2477.png
clip,1,1113,NaN,knife,bear,3,1113_hp_dnn_3_bear_10_n02133161_2800.png
clip,1,1114,NaN,bicycle,bicycle,1,1114_hp_dnn_1_bicycle_10_n02835271_719.png
clip,1,1115,NaN,bottle,bottle,3,1115_hp_dnn_3_bottle_10_n04591713_4585.png
clip,1,1116,NaN,boat,boat,inf,1116_hp_dnn_inf_boat_10_n03662601_11276.png
clip,1,1117,NaN,dog,dog,1,1117_hp_dnn_1_dog_10_n02097658_3693.png
clip,1,1118,NaN,clock,clock,3,1118_hp_dnn_3_clock_10_n04548280_57.png
clip,1,1119,NaN,elephant,dog,0.45,1119_hp_dnn_0.45_dog_10_n02091244_1455.png
clip,1,1120,NaN,knife,bird,0.7,1120_hp_dnn_0.7_bird_10_n02013706_18409.png
clip,1,1121,NaN,elephant,elephant,3,1121_hp_dnn_3_elephant_10_n02504458_13406.png
clip,1,1122,NaN,clock,knife,0.7,1122_hp_dnn_0.7_knife_10_n03041632_4787.png
clip,1,1123,NaN,car,car,0.45,1123_hp_dnn_0.45_car_10_n03100240_5633.png
clip,1,1124,NaN,cat,cat,1,1124_hp_dnn_1_cat_10_n02123597_647.png
clip,1,1125,NaN,clock,oven,1.5,1125_hp_dnn_1.5_oven_10_n04111531_605.png
clip,1,1126,NaN,elephant,bear,0.4,1126_hp_dnn_0.4_bear_10_n02134084_7805.png
clip,1,1127,NaN,truck,truck,0.55,1127_hp_dnn_0.55_truck_10_n04467665_52409.png
clip,1,1128,NaN,dog,dog,3,1128_hp_dnn_3_dog_10_n02096294_1275.png
clip,1,1129,NaN,knife,elephant,1.5,1129_hp_dnn_1.5_elephant_10_n02504013_7079.png
clip,1,1130,NaN,clock,chair,0.55,1130_hp_dnn_0.55_chair_10_n04099969_4725.png
clip,1,1131,NaN,bicycle,chair,0.4,1131_hp_dnn_0.4_chair_10_n03376595_6673.png
clip,1,1132,NaN,elephant,bear,0.4,1132_hp_dnn_0.4_bear_10_n02133161_10325.png
clip,1,1133,NaN,knife,chair,0.45,1133_hp_dnn_0.45_chair_10_n02791124_5684.png
clip,1,1134,NaN,keyboard,keyboard,inf,1134_hp_dnn_inf_keyboard_10_n03085013_23877.png
clip,1,1135,NaN,clock,clock,0.7,1135_hp_dnn_0.7_clock_10_n04548280_6493.png
clip,1,1136,NaN,bottle,bottle,1,1136_hp_dnn_1_bottle_10_n04591713_17676.png
clip,1,1137,NaN,cat,cat,3,1137_hp_dnn_3_cat_10_n02124075_4413.png
clip,1,1138,NaN,clock,car,0.45,1138_hp_dnn_0.45_car_10_n03100240_21833.png
clip,1,1139,NaN,truck,truck,1,1139_hp_dnn_1_truck_10_n04467665_56754.png
clip,1,1140,NaN,boat,boat,1,1140_hp_dnn_1_boat_10_n04273569_16739.png
clip,1,1141,NaN,cat,cat,inf,1141_hp_dnn_inf_cat_10_n02125311_8369.png
clip,1,1142,NaN,clock,clock,0.45,1142_hp_dnn_0.45_clock_10_n02708093_2926.png
clip,1,1143,NaN,bicycle,bicycle,0.45,1143_hp_dnn_0.45_bicycle_10_n03792782_67327.png
clip,1,1144,NaN,car,car,3,1144_hp_dnn_3_car_10_n02814533_3375.png
clip,1,1145,NaN,knife,bottle,1,1145_hp_dnn_1_bottle_10_n03983396_4716.png
clip,1,1146,NaN,truck,truck,inf,1146_hp_dnn_inf_truck_10_n03417042_5257.png
clip,1,1147,NaN,bicycle,bicycle,1.5,1147_hp_dnn_1.5_bicycle_10_n03792782_1983.png
clip,1,1148,NaN,oven,oven,inf,1148_hp_dnn_inf_oven_10_n04111531_16251.png
clip,1,1149,NaN,boat,boat,1,1149_hp_dnn_1_boat_10_n02951358_7320.png
clip,1,1150,NaN,car,car,0.7,1150_hp_dnn_0.7_car_10_n02814533_45704.png
clip,1,1151,NaN,dog,dog,inf,1151_hp_dnn_inf_dog_10_n02086646_5897.png
clip,1,1152,NaN,keyboard,keyboard,1,1152_hp_dnn_1_keyboard_10_n04505470_142.png
clip,1,1153,NaN,bicycle,boat,0.45,1153_hp_dnn_0.45_boat_10_n02951358_23313.png
clip,1,1154,NaN,clock,keyboard,0.4,1154_hp_dnn_0.4_keyboard_10_n03085013_20462.png
clip,1,1155,NaN,chair,chair,3,1155_hp_dnn_3_chair_10_n04429376_28372.png
clip,1,1156,NaN,knife,knife,1.5,1156_hp_dnn_1.5_knife_10_n03041632_38540.png
clip,1,1157,NaN,bottle,truck,0.7,1157_hp_dnn_0.7_truck_10_n03417042_10958.png
clip,1,1158,NaN,cat,cat,0.4,1158_hp_dnn_0.4_cat_10_n02123394_518.png
clip,1,1159,NaN,clock,clock,1.5,1159_hp_dnn_1.5_clock_10_n04548280_3198.png
clip,1,1160,NaN,dog,bird,1.5,1160_hp_dnn_1.5_bird_10_n02051845_14208.png
clip,1,1161,NaN,knife,bear,0.45,1161_hp_dnn_0.45_bear_10_n02134418_13618.png
clip,1,1162,NaN,bear,dog,0.7,1162_hp_dnn_0.7_dog_10_n02098286_1591.png
clip,1,1163,NaN,bottle,bottle,3,1163_hp_dnn_3_bottle_10_n04591713_7090.png
clip,1,1164,NaN,knife,knife,inf,1164_hp_dnn_inf_knife_10_n03041632_22286.png
clip,1,1165,NaN,clock,clock,3,1165_hp_dnn_3_clock_10_n02708093_4737.png
clip,1,1166,NaN,dog,keyboard,0.55,1166_hp_dnn_0.55_keyboard_10_n03085013_21301.png
clip,1,1167,NaN,boat,knife,0.55,1167_hp_dnn_0.55_knife_10_n03041632_18304.png
clip,1,1168,NaN,bottle,bottle,inf,1168_hp_dnn_inf_bottle_10_n04591713_941.png
clip,1,1169,NaN,airplane,airplane,1,1169_hp_dnn_1_airplane_10_n02690373_3435.png
clip,1,1170,NaN,knife,bird,0.7,1170_hp_dnn_0.7_bird_10_n01855032_1096.png
clip,1,1171,NaN,bear,dog,1,1171_hp_dnn_1_dog_10_n02088364_13814.png
clip,1,1172,NaN,bird,bird,3,1172_hp_dnn_3_bird_10_n01534433_5046.png
clip,1,1173,NaN,knife,knife,inf,1173_hp_dnn_inf_knife_10_n03041632_33584.png
clip,1,1174,NaN,keyboard,keyboard,1,1174_hp_dnn_1_keyboard_10_n03085013_24099.png
clip,1,1175,NaN,bottle,bottle,inf,1175_hp_dnn_inf_bottle_10_n03983396_11948.png
clip,1,1176,NaN,bicycle,bottle,0.45,1176_hp_dnn_0.45_bottle_10_n04560804_1785.png
clip,1,1177,NaN,clock,bear,0.45,1177_hp_dnn_0.45_bear_10_n02134418_7067.png
clip,1,1178,NaN,elephant,elephant,3,1178_hp_dnn_3_elephant_10_n02504458_2685.png
clip,1,1179,NaN,clock,knife,0.55,1179_hp_dnn_0.55_knife_10_n03041632_20217.png
clip,1,1180,NaN,boat,boat,1,1180_hp_dnn_1_boat_10_n03344393_5177.png
clip,1,1181,NaN,elephant,bear,0.4,1181_hp_dnn_0.4_bear_10_n02134418_2412.png
clip,1,1182,NaN,knife,oven,0.45,1182_hp_dnn_0.45_oven_10_n04111531_3671.png
clip,1,1183,NaN,boat,boat,0.7,1183_hp_dnn_0.7_boat_10_n04273569_7355.png
clip,1,1184,NaN,keyboard,keyboard,1.5,1184_hp_dnn_1.5_keyboard_10_n04505470_2620.png
clip,1,1185,NaN,knife,bottle,1,1185_hp_dnn_1_bottle_10_n04591713_4892.png
clip,1,1186,NaN,clock,chair,0.4,1186_hp_dnn_0.4_chair_10_n03376595_383.png
clip,1,1187,NaN,car,car,3,1187_hp_dnn_3_car_10_n04285008_13104.png
clip,1,1188,NaN,clock,boat,0.55,1188_hp_dnn_0.55_boat_10_n04612504_2853.png
clip,1,1189,NaN,knife,knife,3,1189_hp_dnn_3_knife_10_n03041632_24998.png
clip,1,1190,NaN,car,clock,inf,1190_hp_dnn_inf_clock_10_n02708093_8134.png
clip,1,1191,NaN,knife,bear,1,1191_hp_dnn_1_bear_10_n02134418_3464.png
clip,1,1192,NaN,clock,knife,0.4,1192_hp_dnn_0.4_knife_10_n03041632_40508.png
clip,1,1193,NaN,bicycle,bicycle,3,1193_hp_dnn_3_bicycle_10_n03792782_60.png
clip,1,1194,NaN,airplane,airplane,0.55,1194_hp_dnn_0.55_airplane_10_n02690373_817.png
clip,1,1195,NaN,clock,clock,0.4,1195_hp_dnn_0.4_clock_10_n02708093_2025.png
clip,1,1196,NaN,car,car,0.4,1196_hp_dnn_0.4_car_10_n04285008_4551.png
clip,1,1197,NaN,boat,boat,0.55,1197_hp_dnn_0.55_boat_10_n04273569_1086.png
clip,1,1198,NaN,boat,boat,1.5,1198_hp_dnn_1.5_boat_10_n04273569_8774.png
clip,1,1199,NaN,truck,truck,3,1199_hp_dnn_3_truck_10_n03796401_7296.png
clip,1,1200,NaN,bicycle,knife,0.45,1200_hp_dnn_0.45_knife_10_n03041632_89912.png
clip,1,1201,NaN,clock,clock,1,1201_hp_dnn_1_clock_10_n03196217_711.png
clip,1,1202,NaN,chair,chair,1.5,1202_hp_dnn_1.5_chair_10_n02791124_3484.png
clip,1,1203,NaN,keyboard,keyboard,3,1203_hp_dnn_3_keyboard_10_n03085013_21914.png
clip,1,1204,NaN,bicycle,bicycle,1.5,1204_hp_dnn_1.5_bicycle_10_n02835271_8549.png
clip,1,1205,NaN,airplane,airplane,0.55,1205_hp_dnn_0.55_airplane_10_n02690373_20996.png
clip,1,1206,NaN,bear,elephant,0.45,1206_hp_dnn_0.45_elephant_10_n02504013_2545.png
clip,1,1207,NaN,elephant,elephant,inf,1207_hp_dnn_inf_elephant_10_n02504458_3068.png
clip,1,1208,NaN,cat,cat,1.5,1208_hp_dnn_1.5_cat_10_n02123159_5934.png
clip,1,1209,NaN,keyboard,keyboard,inf,1209_hp_dnn_inf_keyboard_10_n04505470_4668.png
clip,1,1210,NaN,car,car,0.55,1210_hp_dnn_0.55_car_10_n03100240_10384.png
clip,1,1211,NaN,bear,oven,0.55,1211_hp_dnn_0.55_oven_10_n04111531_21973.png
clip,1,1212,NaN,dog,dog,1,1212_hp_dnn_1_dog_10_n02105505_7816.png
clip,1,1213,NaN,dog,dog,3,1213_hp_dnn_3_dog_10_n02093754_5823.png
clip,1,1214,NaN,knife,knife,0.7,1214_hp_dnn_0.7_knife_10_n03041632_28710.png
clip,1,1215,NaN,clock,clock,0.55,1215_hp_dnn_0.55_clock_10_n03196217_5214.png
clip,1,1216,NaN,clock,clock,0.45,1216_hp_dnn_0.45_clock_10_n03196217_7313.png
clip,1,1217,NaN,elephant,elephant,0.4,1217_hp_dnn_0.4_elephant_10_n02504458_6714.png
clip,1,1218,NaN,elephant,car,0.4,1218_hp_dnn_0.4_car_10_n04285008_9765.png
clip,1,1219,NaN,boat,boat,0.7,1219_hp_dnn_0.7_boat_10_n03662601_840.png
clip,1,1220,NaN,bear,bear,1.5,1220_hp_dnn_1.5_bear_10_n02134418_3216.png
clip,1,1221,NaN,knife,oven,1,1221_hp_dnn_1_oven_10_n04111531_21232.png
clip,1,1222,NaN,keyboard,keyboard,0.45,1222_hp_dnn_0.45_keyboard_10_n04505470_7928.png
clip,1,1223,NaN,knife,dog,0.45,1223_hp_dnn_0.45_dog_10_n02106166_22138.png
clip,1,1224,NaN,truck,car,1,1224_hp_dnn_1_car_10_n04285008_5788.png
clip,1,1225,NaN,knife,knife,1,1225_hp_dnn_1_knife_10_n03041632_11797.png
clip,1,1226,NaN,knife,dog,1,1226_hp_dnn_1_dog_10_n02099267_14149.png
clip,1,1227,NaN,knife,oven,0.7,1227_hp_dnn_0.7_oven_10_n04111531_3955.png
clip,1,1228,NaN,elephant,bear,0.4,1228_hp_dnn_0.4_bear_10_n02133161_24490.png
clip,1,1229,NaN,bear,dog,0.55,1229_hp_dnn_0.55_dog_10_n02097298_6933.png
clip,1,1230,NaN,knife,clock,1.5,1230_hp_dnn_1.5_clock_10_n03196217_71.png
clip,1,1231,NaN,clock,clock,0.4,1231_hp_dnn_0.4_clock_10_n03196217_11290.png
clip,1,1232,NaN,bird,bird,0.55,1232_hp_dnn_0.55_bird_10_n01843065_1699.png
clip,1,1233,NaN,boat,boat,0.55,1233_hp_dnn_0.55_boat_10_n03662601_1541.png
clip,1,1234,NaN,clock,boat,0.45,1234_hp_dnn_0.45_boat_10_n03344393_10295.png
clip,1,1235,NaN,bicycle,bird,0.45,1235_hp_dnn_0.45_bird_10_n02006656_3891.png
clip,1,1236,NaN,dog,dog,3,1236_hp_dnn_3_dog_10_n02111500_7593.png
clip,1,1237,NaN,chair,chair,inf,1237_hp_dnn_inf_chair_10_n02791124_392.png
clip,1,1238,NaN,bicycle,bicycle,1,1238_hp_dnn_1_bicycle_10_n02835271_11851.png
clip,1,1239,NaN,clock,keyboard,0.4,1239_hp_dnn_0.4_keyboard_10_n03085013_19055.png
clip,1,1240,NaN,car,car,1.5,1240_hp_dnn_1.5_car_10_n02814533_70322.png
clip,1,1241,NaN,boat,boat,1,1241_hp_dnn_1_boat_10_n04273569_3770.png
clip,1,1242,NaN,bear,dog,0.4,1242_hp_dnn_0.4_dog_10_n02091032_4179.png
clip,1,1243,NaN,clock,oven,1,1243_hp_dnn_1_oven_10_n04111531_4444.png
clip,1,1244,NaN,keyboard,keyboard,0.55,1244_hp_dnn_0.55_keyboard_10_n03085013_23791.png
clip,1,1245,NaN,elephant,elephant,1.5,1245_hp_dnn_1.5_elephant_10_n02504013_9257.png
clip,1,1246,NaN,dog,dog,1.5,1246_hp_dnn_1.5_dog_10_n02092339_2197.png
clip,1,1247,NaN,knife,knife,0.55,1247_hp_dnn_0.55_knife_10_n03041632_13203.png
clip,1,1248,NaN,oven,oven,1.5,1248_hp_dnn_1.5_oven_10_n04111531_15616.png
clip,1,1249,NaN,knife,bottle,0.7,1249_hp_dnn_0.7_bottle_10_n04591713_2501.png
clip,1,1250,NaN,elephant,dog,0.7,1250_hp_dnn_0.7_dog_10_n02096294_7536.png
clip,1,1251,NaN,airplane,airplane,1,1251_hp_dnn_1_airplane_10_n02690373_2468.png
clip,1,1252,NaN,elephant,bear,0.7,1252_hp_dnn_0.7_bear_10_n02134418_5848.png
clip,1,1253,NaN,bear,dog,0.7,1253_hp_dnn_0.7_dog_10_n02105855_4952.png
clip,1,1254,NaN,clock,truck,1.5,1254_hp_dnn_1.5_truck_10_n04467665_1966.png
clip,1,1255,NaN,clock,airplane,0.4,1255_hp_dnn_0.4_airplane_10_n02690373_4784.png
clip,1,1256,NaN,bottle,bottle,1.5,1256_hp_dnn_1.5_bottle_10_n04591713_7158.png
clip,1,1257,NaN,clock,bottle,0.45,1257_hp_dnn_0.45_bottle_10_n03937543_438.png
clip,1,1258,NaN,chair,chair,3,1258_hp_dnn_3_chair_10_n04429376_26914.png
clip,1,1259,NaN,keyboard,keyboard,1,1259_hp_dnn_1_keyboard_10_n03085013_22928.png
clip,1,1260,NaN,bird,bird,0.45,1260_hp_dnn_0.45_bird_10_n01795545_3992.png
clip,1,1261,NaN,knife,chair,0.7,1261_hp_dnn_0.7_chair_10_n03376595_10507.png
clip,1,1262,NaN,elephant,bottle,0.4,1262_hp_dnn_0.4_bottle_10_n04557648_11977.png
clip,1,1263,NaN,car,car,1.5,1263_hp_dnn_1.5_car_10_n03100240_13909.png
clip,1,1264,NaN,clock,clock,0.55,1264_hp_dnn_0.55_clock_10_n04548280_2988.png
clip,1,1265,NaN,elephant,elephant,0.45,1265_hp_dnn_0.45_elephant_10_n02504458_9094.png
clip,1,1266,NaN,chair,oven,0.7,1266_hp_dnn_0.7_oven_10_n04111531_12468.png
clip,1,1267,NaN,clock,car,0.45,1267_hp_dnn_0.45_car_10_n03100240_14390.png
clip,1,1268,NaN,elephant,bear,0.4,1268_hp_dnn_0.4_bear_10_n02133161_1506.png
clip,1,1269,NaN,clock,clock,3,1269_hp_dnn_3_clock_10_n03196217_5877.png
clip,1,1270,NaN,clock,keyboard,0.45,1270_hp_dnn_0.45_keyboard_10_n04505470_4105.png
clip,1,1271,NaN,elephant,elephant,1.5,1271_hp_dnn_1.5_elephant_10_n02504458_5369.png
clip,1,1272,NaN,elephant,elephant,0.4,1272_hp_dnn_0.4_elephant_10_n02504458_7269.png
clip,1,1273,NaN,elephant,elephant,1,1273_hp_dnn_1_elephant_10_n02504458_2928.png
clip,1,1274,NaN,clock,chair,0.4,1274_hp_dnn_0.4_chair_10_n02791124_1814.png
clip,1,1275,NaN,knife,knife,1,1275_hp_dnn_1_knife_10_n03041632_14442.png
clip,1,1276,NaN,knife,bird,0.7,1276_hp_dnn_0.7_bird_10_n02009229_4667.png
clip,1,1277,NaN,chair,chair,3,1277_hp_dnn_3_chair_10_n03376595_10873.png
clip,1,1278,NaN,knife,knife,1,1278_hp_dnn_1_knife_10_n03041632_105080.png
clip,1,1279,NaN,clock,clock,0.4,1279_hp_dnn_0.4_clock_10_n02708093_6717.png
clip,1,1280,NaN,keyboard,keyboard,inf,1280_hp_dnn_inf_keyboard_10_n04505470_4565.png
