subj,session,trial,rt,object_response,category,condition,imagename
barlow_twins,1,1,NaN,airplane,oven,cr,0001_cl_dnn_cr_oven_40_n04111531_14126.png
barlow_twins,1,2,NaN,car,bear,cr,0002_cl_dnn_cr_bear_40_n02134084_5274.png
barlow_twins,1,3,NaN,knife,cat,cr,0003_cl_dnn_cr_cat_40_n02123394_133.png
barlow_twins,1,4,NaN,bottle,car,cr,0004_cl_dnn_cr_car_40_n02814533_51190.png
barlow_twins,1,5,NaN,boat,chair,bw,0005_cl_dnn_bw_chair_40_n04099969_14986.png
barlow_twins,1,6,NaN,clock,elephant,cr,0006_cl_dnn_cr_elephant_40_n02504013_6731.png
barlow_twins,1,7,NaN,airplane,bottle,cr,0007_cl_dnn_cr_bottle_40_n02823428_987.png
barlow_twins,1,8,NaN,airplane,truck,cr,0008_cl_dnn_cr_truck_40_n03417042_7458.png
barlow_twins,1,9,NaN,keyboard,chair,bw,0009_cl_dnn_bw_chair_40_n04099969_4577.png
barlow_twins,1,10,NaN,car,knife,cr,0010_cl_dnn_cr_knife_40_n03041632_83472.png
barlow_twins,1,11,NaN,elephant,elephant,bw,0011_cl_dnn_bw_elephant_40_n02504458_3485.png
barlow_twins,1,12,NaN,oven,bear,bw,0012_cl_dnn_bw_bear_40_n02133161_1066.png
barlow_twins,1,13,NaN,clock,elephant,bw,0013_cl_dnn_bw_elephant_40_n02504013_1060.png
barlow_twins,1,14,NaN,bicycle,bear,bw,0014_cl_dnn_bw_bear_40_n02134084_1009.png
barlow_twins,1,15,NaN,knife,cat,cr,0015_cl_dnn_cr_cat_40_n02125311_13383.png
barlow_twins,1,16,NaN,clock,elephant,bw,0016_cl_dnn_bw_elephant_40_n02504013_257.png
barlow_twins,1,17,NaN,bicycle,cat,bw,0017_cl_dnn_bw_cat_40_n02123045_6445.png
barlow_twins,1,18,NaN,knife,airplane,bw,0018_cl_dnn_bw_airplane_40_n02690373_3493.png
barlow_twins,1,19,NaN,knife,airplane,bw,0019_cl_dnn_bw_airplane_40_n02690373_5184.png
barlow_twins,1,20,NaN,bicycle,truck,bw,0020_cl_dnn_bw_truck_40_n04467665_22637.png
barlow_twins,1,21,NaN,car,cat,cr,0021_cl_dnn_cr_cat_40_n02123159_10952.png
barlow_twins,1,22,NaN,knife,airplane,bw,0022_cl_dnn_bw_airplane_40_n02690373_3620.png
barlow_twins,1,23,NaN,airplane,bottle,cr,0023_cl_dnn_cr_bottle_40_n04557648_10744.png
barlow_twins,1,24,NaN,car,oven,bw,0024_cl_dnn_bw_oven_40_n04111531_12702.png
barlow_twins,1,25,NaN,oven,bear,cr,0025_cl_dnn_cr_bear_40_n02133161_9949.png
barlow_twins,1,26,NaN,bicycle,keyboard,cr,0026_cl_dnn_cr_keyboard_40_n03085013_3489.png
barlow_twins,1,27,NaN,oven,elephant,bw,0027_cl_dnn_bw_elephant_40_n02504458_4633.png
barlow_twins,1,28,NaN,knife,clock,cr,0028_cl_dnn_cr_clock_40_n04548280_7816.png
barlow_twins,1,29,NaN,airplane,dog,bw,0029_cl_dnn_bw_dog_40_n02097474_1859.png
barlow_twins,1,30,NaN,knife,cat,bw,0030_cl_dnn_bw_cat_40_n02123394_916.png
barlow_twins,1,31,NaN,clock,elephant,cr,0031_cl_dnn_cr_elephant_40_n02504458_3525.png
barlow_twins,1,32,NaN,boat,bear,bw,0032_cl_dnn_bw_bear_40_n02134418_4456.png
barlow_twins,1,33,NaN,clock,keyboard,bw,0033_cl_dnn_bw_keyboard_40_n03085013_24045.png
barlow_twins,1,34,NaN,airplane,knife,bw,0034_cl_dnn_bw_knife_40_n03041632_49363.png
barlow_twins,1,35,NaN,bicycle,cat,bw,0035_cl_dnn_bw_cat_40_n02123159_7854.png
barlow_twins,1,36,NaN,knife,knife,cr,0036_cl_dnn_cr_knife_40_n03041632_4708.png
barlow_twins,1,37,NaN,clock,chair,cr,0037_cl_dnn_cr_chair_40_n04429376_7788.png
barlow_twins,1,38,NaN,airplane,car,cr,0038_cl_dnn_cr_car_40_n03100240_9086.png
barlow_twins,1,39,NaN,airplane,chair,cr,0039_cl_dnn_cr_chair_40_n03376595_3038.png
barlow_twins,1,40,NaN,bicycle,truck,bw,0040_cl_dnn_bw_truck_40_n03796401_1758.png
barlow_twins,1,41,NaN,bear,boat,cr,0041_cl_dnn_cr_boat_40_n04273569_4324.png
barlow_twins,1,42,NaN,airplane,bear,cr,0042_cl_dnn_cr_bear_40_n02134084_1090.png
barlow_twins,1,43,NaN,oven,bicycle,bw,0043_cl_dnn_bw_bicycle_40_n03792782_13665.png
barlow_twins,1,44,NaN,airplane,knife,bw,0044_cl_dnn_bw_knife_40_n03041632_36215.png
barlow_twins,1,45,NaN,bottle,car,bw,0045_cl_dnn_bw_car_40_n04285008_7770.png
barlow_twins,1,46,NaN,airplane,bottle,cr,0046_cl_dnn_cr_bottle_40_n03983396_15260.png
barlow_twins,1,47,NaN,airplane,dog,cr,0047_cl_dnn_cr_dog_40_n02091635_6519.png
barlow_twins,1,48,NaN,elephant,elephant,cr,0048_cl_dnn_cr_elephant_40_n02504013_3485.png
barlow_twins,1,49,NaN,chair,oven,cr,0049_cl_dnn_cr_oven_40_n04111531_807.png
barlow_twins,1,50,NaN,airplane,oven,cr,0050_cl_dnn_cr_oven_40_n04111531_605.png
barlow_twins,1,51,NaN,clock,dog,bw,0051_cl_dnn_bw_dog_40_n02109047_2662.png
barlow_twins,1,52,NaN,airplane,truck,cr,0052_cl_dnn_cr_truck_40_n03417042_16038.png
barlow_twins,1,53,NaN,airplane,truck,bw,0053_cl_dnn_bw_truck_40_n03796401_1710.png
barlow_twins,1,54,NaN,clock,cat,cr,0054_cl_dnn_cr_cat_40_n02125311_20921.png
barlow_twins,1,55,NaN,clock,bear,cr,0055_cl_dnn_cr_bear_40_n02133161_575.png
barlow_twins,1,56,NaN,car,chair,bw,0056_cl_dnn_bw_chair_40_n04429376_21865.png
barlow_twins,1,57,NaN,clock,bird,bw,0057_cl_dnn_bw_bird_40_n01616318_26436.png
barlow_twins,1,58,NaN,airplane,oven,cr,0058_cl_dnn_cr_oven_40_n04111531_9498.png
barlow_twins,1,59,NaN,bicycle,bear,bw,0059_cl_dnn_bw_bear_40_n02134418_397.png
barlow_twins,1,60,NaN,car,chair,cr,0060_cl_dnn_cr_chair_40_n04099969_23961.png
barlow_twins,1,61,NaN,car,dog,bw,0061_cl_dnn_bw_dog_40_n02093256_7181.png
barlow_twins,1,62,NaN,clock,bicycle,cr,0062_cl_dnn_cr_bicycle_40_n02835271_26731.png
barlow_twins,1,63,NaN,knife,cat,cr,0063_cl_dnn_cr_cat_40_n02125311_12557.png
barlow_twins,1,64,NaN,airplane,dog,cr,0064_cl_dnn_cr_dog_40_n02093647_2890.png
barlow_twins,1,65,NaN,clock,knife,cr,0065_cl_dnn_cr_knife_40_n03041632_14293.png
barlow_twins,1,66,NaN,airplane,oven,bw,0066_cl_dnn_bw_oven_40_n04111531_20359.png
barlow_twins,1,67,NaN,knife,truck,bw,0067_cl_dnn_bw_truck_40_n04467665_12177.png
barlow_twins,1,68,NaN,boat,bicycle,cr,0068_cl_dnn_cr_bicycle_40_n02835271_19400.png
barlow_twins,1,69,NaN,knife,truck,cr,0069_cl_dnn_cr_truck_40_n03417042_1263.png
barlow_twins,1,70,NaN,oven,cat,bw,0070_cl_dnn_bw_cat_40_n02123045_8336.png
barlow_twins,1,71,NaN,oven,bear,bw,0071_cl_dnn_bw_bear_40_n02134418_5405.png
barlow_twins,1,72,NaN,bicycle,car,bw,0072_cl_dnn_bw_car_40_n04285008_2906.png
barlow_twins,1,73,NaN,clock,bird,cr,0073_cl_dnn_cr_bird_40_n01818515_10517.png
barlow_twins,1,74,NaN,car,truck,cr,0074_cl_dnn_cr_truck_40_n03796401_14203.png
barlow_twins,1,75,NaN,keyboard,bird,bw,0075_cl_dnn_bw_bird_40_n02009229_2503.png
barlow_twins,1,76,NaN,airplane,bottle,bw,0076_cl_dnn_bw_bottle_40_n02823428_6767.png
barlow_twins,1,77,NaN,oven,bicycle,bw,0077_cl_dnn_bw_bicycle_40_n02835271_12847.png
barlow_twins,1,78,NaN,knife,bicycle,cr,0078_cl_dnn_cr_bicycle_40_n02835271_24104.png
barlow_twins,1,79,NaN,bicycle,clock,cr,0079_cl_dnn_cr_clock_40_n04548280_77.png
barlow_twins,1,80,NaN,oven,cat,bw,0080_cl_dnn_bw_cat_40_n02123394_6698.png
barlow_twins,1,81,NaN,clock,keyboard,cr,0081_cl_dnn_cr_keyboard_40_n04505470_4356.png
barlow_twins,1,82,NaN,airplane,chair,cr,0082_cl_dnn_cr_chair_40_n04429376_16325.png
barlow_twins,1,83,NaN,bear,elephant,bw,0083_cl_dnn_bw_elephant_40_n02504458_6721.png
barlow_twins,1,84,NaN,knife,truck,cr,0084_cl_dnn_cr_truck_40_n03417042_6213.png
barlow_twins,1,85,NaN,car,dog,bw,0085_cl_dnn_bw_dog_40_n02097130_8277.png
barlow_twins,1,86,NaN,truck,bottle,cr,0086_cl_dnn_cr_bottle_40_n04557648_1856.png
barlow_twins,1,87,NaN,clock,bird,bw,0087_cl_dnn_bw_bird_40_n01531178_10905.png
barlow_twins,1,88,NaN,oven,bear,cr,0088_cl_dnn_cr_bear_40_n02133161_2202.png
barlow_twins,1,89,NaN,clock,elephant,cr,0089_cl_dnn_cr_elephant_40_n02504458_10439.png
barlow_twins,1,90,NaN,airplane,clock,cr,0090_cl_dnn_cr_clock_40_n02708093_6766.png
barlow_twins,1,91,NaN,airplane,bottle,bw,0091_cl_dnn_bw_bottle_40_n03983396_2057.png
barlow_twins,1,92,NaN,oven,knife,bw,0092_cl_dnn_bw_knife_40_n03041632_10000.png
barlow_twins,1,93,NaN,knife,cat,cr,0093_cl_dnn_cr_cat_40_n02125311_2959.png
barlow_twins,1,94,NaN,clock,car,bw,0094_cl_dnn_bw_car_40_n04285008_13759.png
barlow_twins,1,95,NaN,airplane,bottle,cr,0095_cl_dnn_cr_bottle_40_n03937543_396.png
barlow_twins,1,96,NaN,clock,boat,bw,0096_cl_dnn_bw_boat_40_n03662601_3984.png
barlow_twins,1,97,NaN,knife,truck,bw,0097_cl_dnn_bw_truck_40_n04467665_2230.png
barlow_twins,1,98,NaN,knife,boat,cr,0098_cl_dnn_cr_boat_40_n03662601_28640.png
barlow_twins,1,99,NaN,bicycle,cat,cr,0099_cl_dnn_cr_cat_40_n02124075_11039.png
barlow_twins,1,100,NaN,bicycle,knife,bw,0100_cl_dnn_bw_knife_40_n03041632_7380.png
barlow_twins,1,101,NaN,bicycle,cat,cr,0101_cl_dnn_cr_cat_40_n02123045_6607.png
barlow_twins,1,102,NaN,knife,chair,cr,0102_cl_dnn_cr_chair_40_n03376595_6704.png
barlow_twins,1,103,NaN,bicycle,bear,bw,0103_cl_dnn_bw_bear_40_n02133161_12187.png
barlow_twins,1,104,NaN,bear,dog,cr,0104_cl_dnn_cr_dog_40_n02110958_2363.png
barlow_twins,1,105,NaN,airplane,airplane,cr,0105_cl_dnn_cr_airplane_40_n02690373_19438.png
barlow_twins,1,106,NaN,car,bird,cr,0106_cl_dnn_cr_bird_40_n01855032_5511.png
barlow_twins,1,107,NaN,bear,boat,bw,0107_cl_dnn_bw_boat_40_n04273569_9821.png
barlow_twins,1,108,NaN,oven,bear,bw,0108_cl_dnn_bw_bear_40_n02133161_13461.png
barlow_twins,1,109,NaN,boat,dog,cr,0109_cl_dnn_cr_dog_40_n02113023_8552.png
barlow_twins,1,110,NaN,boat,elephant,cr,0110_cl_dnn_cr_elephant_40_n02504458_1600.png
barlow_twins,1,111,NaN,boat,chair,cr,0111_cl_dnn_cr_chair_40_n04099969_4205.png
barlow_twins,1,112,NaN,elephant,dog,bw,0112_cl_dnn_bw_dog_40_n02105505_2121.png
barlow_twins,1,113,NaN,clock,chair,cr,0113_cl_dnn_cr_chair_40_n02791124_4528.png
barlow_twins,1,114,NaN,clock,truck,bw,0114_cl_dnn_bw_truck_40_n03417042_5659.png
barlow_twins,1,115,NaN,clock,elephant,cr,0115_cl_dnn_cr_elephant_40_n02504013_10330.png
barlow_twins,1,116,NaN,elephant,cat,cr,0116_cl_dnn_cr_cat_40_n02123394_1594.png
barlow_twins,1,117,NaN,clock,bear,bw,0117_cl_dnn_bw_bear_40_n02132136_10654.png
barlow_twins,1,118,NaN,knife,bottle,bw,0118_cl_dnn_bw_bottle_40_n02823428_5265.png
barlow_twins,1,119,NaN,clock,truck,cr,0119_cl_dnn_cr_truck_40_n04467665_3125.png
barlow_twins,1,120,NaN,clock,airplane,cr,0120_cl_dnn_cr_airplane_40_n02690373_60.png
barlow_twins,1,121,NaN,clock,keyboard,cr,0121_cl_dnn_cr_keyboard_40_n03085013_21645.png
barlow_twins,1,122,NaN,clock,car,bw,0122_cl_dnn_bw_car_40_n03100240_9471.png
barlow_twins,1,123,NaN,airplane,boat,cr,0123_cl_dnn_cr_boat_40_n03344393_9818.png
barlow_twins,1,124,NaN,oven,elephant,bw,0124_cl_dnn_bw_elephant_40_n02504458_5444.png
barlow_twins,1,125,NaN,clock,bottle,bw,0125_cl_dnn_bw_bottle_40_n04557648_26823.png
barlow_twins,1,126,NaN,clock,bottle,cr,0126_cl_dnn_cr_bottle_40_n02823428_765.png
barlow_twins,1,127,NaN,oven,cat,bw,0127_cl_dnn_bw_cat_40_n02123045_1787.png
barlow_twins,1,128,NaN,clock,car,bw,0128_cl_dnn_bw_car_40_n02814533_35863.png
barlow_twins,1,129,NaN,clock,boat,bw,0129_cl_dnn_bw_boat_40_n02951358_7944.png
barlow_twins,1,130,NaN,clock,dog,bw,0130_cl_dnn_bw_dog_40_n02091467_3727.png
barlow_twins,1,131,NaN,oven,bicycle,cr,0131_cl_dnn_cr_bicycle_40_n02835271_5886.png
barlow_twins,1,132,NaN,knife,truck,bw,0132_cl_dnn_bw_truck_40_n04467665_18234.png
barlow_twins,1,133,NaN,boat,elephant,cr,0133_cl_dnn_cr_elephant_40_n02504013_4892.png
barlow_twins,1,134,NaN,clock,keyboard,cr,0134_cl_dnn_cr_keyboard_40_n03085013_19618.png
barlow_twins,1,135,NaN,clock,clock,cr,0135_cl_dnn_cr_clock_40_n03196217_3430.png
barlow_twins,1,136,NaN,clock,bicycle,bw,0136_cl_dnn_bw_bicycle_40_n03792782_24591.png
barlow_twins,1,137,NaN,clock,bird,cr,0137_cl_dnn_cr_bird_40_n02007558_2822.png
barlow_twins,1,138,NaN,knife,truck,bw,0138_cl_dnn_bw_truck_40_n04467665_71126.png
barlow_twins,1,139,NaN,oven,bicycle,cr,0139_cl_dnn_cr_bicycle_40_n02835271_22263.png
barlow_twins,1,140,NaN,bottle,car,bw,0140_cl_dnn_bw_car_40_n04285008_5548.png
barlow_twins,1,141,NaN,car,oven,bw,0141_cl_dnn_bw_oven_40_n04111531_13006.png
barlow_twins,1,142,NaN,clock,car,bw,0142_cl_dnn_bw_car_40_n04285008_11410.png
barlow_twins,1,143,NaN,boat,chair,bw,0143_cl_dnn_bw_chair_40_n04429376_2304.png
barlow_twins,1,144,NaN,knife,boat,cr,0144_cl_dnn_cr_boat_40_n03662601_27165.png
barlow_twins,1,145,NaN,airplane,truck,bw,0145_cl_dnn_bw_truck_40_n04467665_70308.png
barlow_twins,1,146,NaN,oven,bicycle,cr,0146_cl_dnn_cr_bicycle_40_n03792782_51414.png
barlow_twins,1,147,NaN,bicycle,knife,cr,0147_cl_dnn_cr_knife_40_n03041632_44738.png
barlow_twins,1,148,NaN,oven,elephant,bw,0148_cl_dnn_bw_elephant_40_n02504458_11363.png
barlow_twins,1,149,NaN,knife,truck,cr,0149_cl_dnn_cr_truck_40_n04467665_4899.png
barlow_twins,1,150,NaN,bicycle,bear,cr,0150_cl_dnn_cr_bear_40_n02134418_685.png
barlow_twins,1,151,NaN,oven,keyboard,bw,0151_cl_dnn_bw_keyboard_40_n04505470_4363.png
barlow_twins,1,152,NaN,car,oven,bw,0152_cl_dnn_bw_oven_40_n04111531_12468.png
barlow_twins,1,153,NaN,airplane,bottle,cr,0153_cl_dnn_cr_bottle_40_n04591713_5559.png
barlow_twins,1,154,NaN,airplane,elephant,cr,0154_cl_dnn_cr_elephant_40_n02504013_3197.png
barlow_twins,1,155,NaN,clock,bird,bw,0155_cl_dnn_bw_bird_40_n01817953_5039.png
barlow_twins,1,156,NaN,clock,bicycle,cr,0156_cl_dnn_cr_bicycle_40_n03792782_3296.png
barlow_twins,1,157,NaN,cat,bird,cr,0157_cl_dnn_cr_bird_40_n01855672_5670.png
barlow_twins,1,158,NaN,airplane,oven,cr,0158_cl_dnn_cr_oven_40_n04111531_2260.png
barlow_twins,1,159,NaN,car,cat,cr,0159_cl_dnn_cr_cat_40_n02123045_5932.png
barlow_twins,1,160,NaN,bear,dog,cr,0160_cl_dnn_cr_dog_40_n02100583_1267.png
barlow_twins,1,161,NaN,elephant,dog,bw,0161_cl_dnn_bw_dog_40_n02099601_8005.png
barlow_twins,1,162,NaN,car,boat,cr,0162_cl_dnn_cr_boat_40_n02951358_12080.png
barlow_twins,1,163,NaN,airplane,oven,cr,0163_cl_dnn_cr_oven_40_n04111531_20028.png
barlow_twins,1,164,NaN,cat,cat,bw,0164_cl_dnn_bw_cat_40_n02123159_2107.png
barlow_twins,1,165,NaN,boat,bear,cr,0165_cl_dnn_cr_bear_40_n02134418_1351.png
barlow_twins,1,166,NaN,elephant,oven,cr,0166_cl_dnn_cr_oven_40_n04111531_6609.png
barlow_twins,1,167,NaN,airplane,knife,bw,0167_cl_dnn_bw_knife_40_n03041632_21477.png
barlow_twins,1,168,NaN,oven,cat,cr,0168_cl_dnn_cr_cat_40_n02123394_238.png
barlow_twins,1,169,NaN,clock,elephant,cr,0169_cl_dnn_cr_elephant_40_n02504013_3141.png
barlow_twins,1,170,NaN,clock,elephant,cr,0170_cl_dnn_cr_elephant_40_n02504013_5035.png
barlow_twins,1,171,NaN,clock,dog,cr,0171_cl_dnn_cr_dog_40_n02089867_2298.png
barlow_twins,1,172,NaN,oven,bear,bw,0172_cl_dnn_bw_bear_40_n02134418_2503.png
barlow_twins,1,173,NaN,keyboard,keyboard,cr,0173_cl_dnn_cr_keyboard_40_n04505470_4878.png
barlow_twins,1,174,NaN,clock,knife,bw,0174_cl_dnn_bw_knife_40_n03041632_22734.png
barlow_twins,1,175,NaN,keyboard,bear,cr,0175_cl_dnn_cr_bear_40_n02132136_8896.png
barlow_twins,1,176,NaN,bicycle,boat,bw,0176_cl_dnn_bw_boat_40_n02951358_5952.png
barlow_twins,1,177,NaN,car,chair,bw,0177_cl_dnn_bw_chair_40_n04099969_1775.png
barlow_twins,1,178,NaN,bicycle,airplane,bw,0178_cl_dnn_bw_airplane_40_n02690373_6524.png
barlow_twins,1,179,NaN,car,bear,cr,0179_cl_dnn_cr_bear_40_n02133161_1916.png
barlow_twins,1,180,NaN,oven,knife,bw,0180_cl_dnn_bw_knife_40_n03041632_96714.png
barlow_twins,1,181,NaN,bicycle,truck,bw,0181_cl_dnn_bw_truck_40_n03417042_13635.png
barlow_twins,1,182,NaN,airplane,boat,bw,0182_cl_dnn_bw_boat_40_n04612504_1748.png
barlow_twins,1,183,NaN,clock,bird,cr,0183_cl_dnn_cr_bird_40_n01592084_3341.png
barlow_twins,1,184,NaN,clock,car,bw,0184_cl_dnn_bw_car_40_n02814533_12388.png
barlow_twins,1,185,NaN,clock,bicycle,cr,0185_cl_dnn_cr_bicycle_40_n03792782_5864.png
barlow_twins,1,186,NaN,clock,bird,bw,0186_cl_dnn_bw_bird_40_n01514859_17156.png
barlow_twins,1,187,NaN,clock,car,cr,0187_cl_dnn_cr_car_40_n03100240_7737.png
barlow_twins,1,188,NaN,bicycle,bottle,bw,0188_cl_dnn_bw_bottle_40_n04579145_1829.png
barlow_twins,1,189,NaN,airplane,elephant,bw,0189_cl_dnn_bw_elephant_40_n02504013_22388.png
barlow_twins,1,190,NaN,airplane,airplane,bw,0190_cl_dnn_bw_airplane_40_n02690373_7107.png
barlow_twins,1,191,NaN,car,car,bw,0191_cl_dnn_bw_car_40_n02814533_45594.png
barlow_twins,1,192,NaN,clock,boat,cr,0192_cl_dnn_cr_boat_40_n04612504_18536.png
barlow_twins,1,193,NaN,boat,dog,cr,0193_cl_dnn_cr_dog_40_n02088466_6371.png
barlow_twins,1,194,NaN,car,bear,bw,0194_cl_dnn_bw_bear_40_n02133161_1003.png
barlow_twins,1,195,NaN,bicycle,knife,bw,0195_cl_dnn_bw_knife_40_n03041632_29037.png
barlow_twins,1,196,NaN,bottle,airplane,cr,0196_cl_dnn_cr_airplane_40_n02690373_4015.png
barlow_twins,1,197,NaN,clock,knife,bw,0197_cl_dnn_bw_knife_40_n03041632_28009.png
barlow_twins,1,198,NaN,clock,bird,bw,0198_cl_dnn_bw_bird_40_n01560419_5714.png
barlow_twins,1,199,NaN,car,cat,cr,0199_cl_dnn_cr_cat_40_n02125311_6429.png
barlow_twins,1,200,NaN,chair,chair,bw,0200_cl_dnn_bw_chair_40_n04099969_9847.png
barlow_twins,1,201,NaN,bicycle,cat,bw,0201_cl_dnn_bw_cat_40_n02123597_7142.png
barlow_twins,1,202,NaN,bear,bicycle,cr,0202_cl_dnn_cr_bicycle_40_n02835271_8982.png
barlow_twins,1,203,NaN,clock,bird,bw,0203_cl_dnn_bw_bird_40_n01592084_19555.png
barlow_twins,1,204,NaN,car,knife,cr,0204_cl_dnn_cr_knife_40_n03041632_8618.png
barlow_twins,1,205,NaN,car,boat,bw,0205_cl_dnn_bw_boat_40_n03344393_547.png
barlow_twins,1,206,NaN,bicycle,bird,bw,0206_cl_dnn_bw_bird_40_n01843383_5962.png
barlow_twins,1,207,NaN,oven,keyboard,cr,0207_cl_dnn_cr_keyboard_40_n04505470_213.png
barlow_twins,1,208,NaN,airplane,elephant,cr,0208_cl_dnn_cr_elephant_40_n02504458_2607.png
barlow_twins,1,209,NaN,clock,bear,bw,0209_cl_dnn_bw_bear_40_n02134418_4157.png
barlow_twins,1,210,NaN,airplane,bottle,cr,0210_cl_dnn_cr_bottle_40_n03983396_11519.png
barlow_twins,1,211,NaN,bicycle,cat,cr,0211_cl_dnn_cr_cat_40_n02124075_1999.png
barlow_twins,1,212,NaN,bicycle,cat,bw,0212_cl_dnn_bw_cat_40_n02124075_11252.png
barlow_twins,1,213,NaN,clock,airplane,bw,0213_cl_dnn_bw_airplane_40_n02690373_4195.png
barlow_twins,1,214,NaN,airplane,airplane,cr,0214_cl_dnn_cr_airplane_40_n02690373_2629.png
barlow_twins,1,215,NaN,keyboard,keyboard,bw,0215_cl_dnn_bw_keyboard_40_n04505470_5060.png
barlow_twins,1,216,NaN,airplane,bear,cr,0216_cl_dnn_cr_bear_40_n02132136_10060.png
barlow_twins,1,217,NaN,knife,airplane,bw,0217_cl_dnn_bw_airplane_40_n02690373_4150.png
barlow_twins,1,218,NaN,car,dog,cr,0218_cl_dnn_cr_dog_40_n02102040_7465.png
barlow_twins,1,219,NaN,airplane,bird,bw,0219_cl_dnn_bw_bird_40_n02009229_12179.png
barlow_twins,1,220,NaN,oven,knife,bw,0220_cl_dnn_bw_knife_40_n03041632_20413.png
barlow_twins,1,221,NaN,knife,truck,bw,0221_cl_dnn_bw_truck_40_n03796401_13490.png
barlow_twins,1,222,NaN,bicycle,oven,cr,0222_cl_dnn_cr_oven_40_n04111531_584.png
barlow_twins,1,223,NaN,car,airplane,bw,0223_cl_dnn_bw_airplane_40_n02690373_3899.png
barlow_twins,1,224,NaN,bicycle,bird,cr,0224_cl_dnn_cr_bird_40_n02027492_8707.png
barlow_twins,1,225,NaN,knife,airplane,cr,0225_cl_dnn_cr_airplane_40_n02690373_2648.png
barlow_twins,1,226,NaN,bicycle,cat,bw,0226_cl_dnn_bw_cat_40_n02123394_6598.png
barlow_twins,1,227,NaN,clock,bicycle,bw,0227_cl_dnn_bw_bicycle_40_n02835271_17168.png
barlow_twins,1,228,NaN,knife,truck,bw,0228_cl_dnn_bw_truck_40_n03417042_29849.png
barlow_twins,1,229,NaN,oven,knife,cr,0229_cl_dnn_cr_knife_40_n03041632_29125.png
barlow_twins,1,230,NaN,car,clock,bw,0230_cl_dnn_bw_clock_40_n04548280_5456.png
barlow_twins,1,231,NaN,oven,truck,bw,0231_cl_dnn_bw_truck_40_n03796401_8099.png
barlow_twins,1,232,NaN,airplane,bear,cr,0232_cl_dnn_cr_bear_40_n02132136_860.png
barlow_twins,1,233,NaN,knife,truck,bw,0233_cl_dnn_bw_truck_40_n03796401_4423.png
barlow_twins,1,234,NaN,clock,elephant,bw,0234_cl_dnn_bw_elephant_40_n02504458_7871.png
barlow_twins,1,235,NaN,car,oven,cr,0235_cl_dnn_cr_oven_40_n04111531_14753.png
barlow_twins,1,236,NaN,knife,clock,bw,0236_cl_dnn_bw_clock_40_n04548280_17198.png
barlow_twins,1,237,NaN,airplane,oven,cr,0237_cl_dnn_cr_oven_40_n04111531_15947.png
barlow_twins,1,238,NaN,oven,elephant,bw,0238_cl_dnn_bw_elephant_40_n02504013_1103.png
barlow_twins,1,239,NaN,car,bicycle,cr,0239_cl_dnn_cr_bicycle_40_n03792782_33853.png
barlow_twins,1,240,NaN,airplane,bottle,bw,0240_cl_dnn_bw_bottle_40_n04557648_5665.png
barlow_twins,1,241,NaN,boat,bear,bw,0241_cl_dnn_bw_bear_40_n02134418_5824.png
barlow_twins,1,242,NaN,knife,truck,cr,0242_cl_dnn_cr_truck_40_n04467665_54349.png
barlow_twins,1,243,NaN,knife,truck,cr,0243_cl_dnn_cr_truck_40_n03796401_8100.png
barlow_twins,1,244,NaN,clock,elephant,cr,0244_cl_dnn_cr_elephant_40_n02504013_4288.png
barlow_twins,1,245,NaN,car,boat,cr,0245_cl_dnn_cr_boat_40_n03662601_4437.png
barlow_twins,1,246,NaN,keyboard,bicycle,cr,0246_cl_dnn_cr_bicycle_40_n02835271_7351.png
barlow_twins,1,247,NaN,oven,elephant,bw,0247_cl_dnn_bw_elephant_40_n02504458_2556.png
barlow_twins,1,248,NaN,clock,airplane,cr,0248_cl_dnn_cr_airplane_40_n02690373_303.png
barlow_twins,1,249,NaN,clock,elephant,bw,0249_cl_dnn_bw_elephant_40_n02504013_5503.png
barlow_twins,1,250,NaN,clock,truck,cr,0250_cl_dnn_cr_truck_40_n04467665_68332.png
barlow_twins,1,251,NaN,bicycle,clock,bw,0251_cl_dnn_bw_clock_40_n02708093_3079.png
barlow_twins,1,252,NaN,oven,cat,cr,0252_cl_dnn_cr_cat_40_n02123394_2395.png
barlow_twins,1,253,NaN,car,chair,cr,0253_cl_dnn_cr_chair_40_n04429376_20906.png
barlow_twins,1,254,NaN,oven,boat,cr,0254_cl_dnn_cr_boat_40_n03344393_8160.png
barlow_twins,1,255,NaN,bear,keyboard,cr,0255_cl_dnn_cr_keyboard_40_n03085013_21325.png
barlow_twins,1,256,NaN,clock,knife,cr,0256_cl_dnn_cr_knife_40_n03041632_99875.png
barlow_twins,1,257,NaN,bicycle,clock,bw,0257_cl_dnn_bw_clock_40_n04548280_7384.png
barlow_twins,1,258,NaN,clock,keyboard,bw,0258_cl_dnn_bw_keyboard_40_n03085013_23534.png
barlow_twins,1,259,NaN,knife,truck,bw,0259_cl_dnn_bw_truck_40_n03417042_2383.png
barlow_twins,1,260,NaN,car,clock,bw,0260_cl_dnn_bw_clock_40_n03196217_711.png
barlow_twins,1,261,NaN,car,keyboard,bw,0261_cl_dnn_bw_keyboard_40_n03085013_7992.png
barlow_twins,1,262,NaN,knife,cat,bw,0262_cl_dnn_bw_cat_40_n02125311_75445.png
barlow_twins,1,263,NaN,bicycle,knife,cr,0263_cl_dnn_cr_knife_40_n03041632_47410.png
barlow_twins,1,264,NaN,airplane,oven,bw,0264_cl_dnn_bw_oven_40_n04111531_741.png
barlow_twins,1,265,NaN,airplane,oven,bw,0265_cl_dnn_bw_oven_40_n04111531_3181.png
barlow_twins,1,266,NaN,bicycle,truck,bw,0266_cl_dnn_bw_truck_40_n03417042_17099.png
barlow_twins,1,267,NaN,car,boat,cr,0267_cl_dnn_cr_boat_40_n03662601_15143.png
barlow_twins,1,268,NaN,airplane,keyboard,bw,0268_cl_dnn_bw_keyboard_40_n03085013_19197.png
barlow_twins,1,269,NaN,knife,airplane,cr,0269_cl_dnn_cr_airplane_40_n02690373_4202.png
barlow_twins,1,270,NaN,clock,bear,bw,0270_cl_dnn_bw_bear_40_n02132136_10134.png
barlow_twins,1,271,NaN,bicycle,boat,bw,0271_cl_dnn_bw_boat_40_n03344393_5296.png
barlow_twins,1,272,NaN,airplane,keyboard,bw,0272_cl_dnn_bw_keyboard_40_n04505470_1600.png
barlow_twins,1,273,NaN,airplane,truck,bw,0273_cl_dnn_bw_truck_40_n03417042_10043.png
barlow_twins,1,274,NaN,boat,bird,bw,0274_cl_dnn_bw_bird_40_n02007558_5525.png
barlow_twins,1,275,NaN,clock,airplane,cr,0275_cl_dnn_cr_airplane_40_n02690373_6621.png
barlow_twins,1,276,NaN,clock,keyboard,bw,0276_cl_dnn_bw_keyboard_40_n04505470_6623.png
barlow_twins,1,277,NaN,boat,dog,cr,0277_cl_dnn_cr_dog_40_n02113624_3403.png
barlow_twins,1,278,NaN,airplane,dog,bw,0278_cl_dnn_bw_dog_40_n02106550_12642.png
barlow_twins,1,279,NaN,knife,clock,cr,0279_cl_dnn_cr_clock_40_n04548280_24041.png
barlow_twins,1,280,NaN,car,truck,bw,0280_cl_dnn_bw_truck_40_n03417042_3236.png
barlow_twins,1,281,NaN,clock,car,bw,0281_cl_dnn_bw_car_40_n03100240_2583.png
barlow_twins,1,282,NaN,oven,knife,cr,0282_cl_dnn_cr_knife_40_n03041632_45090.png
barlow_twins,1,283,NaN,bicycle,cat,cr,0283_cl_dnn_cr_cat_40_n02123597_660.png
barlow_twins,1,284,NaN,chair,clock,bw,0284_cl_dnn_bw_clock_40_n04548280_7813.png
barlow_twins,1,285,NaN,oven,dog,bw,0285_cl_dnn_bw_dog_40_n02111129_797.png
barlow_twins,1,286,NaN,knife,knife,cr,0286_cl_dnn_cr_knife_40_n03041632_3717.png
barlow_twins,1,287,NaN,bicycle,boat,bw,0287_cl_dnn_bw_boat_40_n04273569_870.png
barlow_twins,1,288,NaN,elephant,elephant,bw,0288_cl_dnn_bw_elephant_40_n02504013_720.png
barlow_twins,1,289,NaN,clock,oven,cr,0289_cl_dnn_cr_oven_40_n04111531_14876.png
barlow_twins,1,290,NaN,car,cat,bw,0290_cl_dnn_bw_cat_40_n02123045_569.png
barlow_twins,1,291,NaN,boat,clock,bw,0291_cl_dnn_bw_clock_40_n03196217_5888.png
barlow_twins,1,292,NaN,airplane,keyboard,cr,0292_cl_dnn_cr_keyboard_40_n04505470_4770.png
barlow_twins,1,293,NaN,bicycle,knife,cr,0293_cl_dnn_cr_knife_40_n03041632_32292.png
barlow_twins,1,294,NaN,airplane,elephant,cr,0294_cl_dnn_cr_elephant_40_n02504013_6672.png
barlow_twins,1,295,NaN,airplane,airplane,bw,0295_cl_dnn_bw_airplane_40_n02690373_5838.png
barlow_twins,1,296,NaN,clock,bird,cr,0296_cl_dnn_cr_bird_40_n01796340_5508.png
barlow_twins,1,297,NaN,clock,clock,bw,0297_cl_dnn_bw_clock_40_n03196217_6477.png
barlow_twins,1,298,NaN,clock,bird,bw,0298_cl_dnn_bw_bird_40_n02011460_5075.png
barlow_twins,1,299,NaN,bicycle,boat,bw,0299_cl_dnn_bw_boat_40_n03344393_10284.png
barlow_twins,1,300,NaN,airplane,oven,bw,0300_cl_dnn_bw_oven_40_n04111531_14559.png
barlow_twins,1,301,NaN,airplane,knife,cr,0301_cl_dnn_cr_knife_40_n03041632_24060.png
barlow_twins,1,302,NaN,airplane,airplane,bw,0302_cl_dnn_bw_airplane_40_n02690373_4134.png
barlow_twins,1,303,NaN,keyboard,bear,cr,0303_cl_dnn_cr_bear_40_n02134084_6669.png
barlow_twins,1,304,NaN,clock,bird,cr,0304_cl_dnn_cr_bird_40_n01558993_5744.png
barlow_twins,1,305,NaN,airplane,bird,bw,0305_cl_dnn_bw_bird_40_n01818515_10536.png
barlow_twins,1,306,NaN,knife,bottle,bw,0306_cl_dnn_bw_bottle_40_n04557648_20614.png
barlow_twins,1,307,NaN,airplane,clock,cr,0307_cl_dnn_cr_clock_40_n04548280_3605.png
barlow_twins,1,308,NaN,oven,truck,bw,0308_cl_dnn_bw_truck_40_n03796401_27288.png
barlow_twins,1,309,NaN,keyboard,bicycle,cr,0309_cl_dnn_cr_bicycle_40_n02835271_18276.png
barlow_twins,1,310,NaN,bicycle,bear,cr,0310_cl_dnn_cr_bear_40_n02133161_12152.png
barlow_twins,1,311,NaN,car,elephant,cr,0311_cl_dnn_cr_elephant_40_n02504013_14918.png
barlow_twins,1,312,NaN,car,bicycle,bw,0312_cl_dnn_bw_bicycle_40_n03792782_5323.png
barlow_twins,1,313,NaN,clock,truck,cr,0313_cl_dnn_cr_truck_40_n04467665_37066.png
barlow_twins,1,314,NaN,keyboard,bird,bw,0314_cl_dnn_bw_bird_40_n02025239_2481.png
barlow_twins,1,315,NaN,car,bicycle,bw,0315_cl_dnn_bw_bicycle_40_n02835271_5113.png
barlow_twins,1,316,NaN,oven,elephant,cr,0316_cl_dnn_cr_elephant_40_n02504458_6185.png
barlow_twins,1,317,NaN,knife,knife,cr,0317_cl_dnn_cr_knife_40_n03041632_11475.png
barlow_twins,1,318,NaN,bicycle,cat,bw,0318_cl_dnn_bw_cat_40_n02125311_31318.png
barlow_twins,1,319,NaN,knife,clock,bw,0319_cl_dnn_bw_clock_40_n04548280_8585.png
barlow_twins,1,320,NaN,bicycle,bear,bw,0320_cl_dnn_bw_bear_40_n02134418_12628.png
barlow_twins,1,321,NaN,bear,chair,bw,0321_cl_dnn_bw_chair_40_n03376595_17859.png
barlow_twins,1,322,NaN,airplane,knife,cr,0322_cl_dnn_cr_knife_40_n03041632_379.png
barlow_twins,1,323,NaN,airplane,bottle,bw,0323_cl_dnn_bw_bottle_40_n04557648_1293.png
barlow_twins,1,324,NaN,clock,boat,cr,0324_cl_dnn_cr_boat_40_n03662601_26298.png
barlow_twins,1,325,NaN,airplane,oven,bw,0325_cl_dnn_bw_oven_40_n04111531_6120.png
barlow_twins,1,326,NaN,clock,car,bw,0326_cl_dnn_bw_car_40_n02814533_92940.png
barlow_twins,1,327,NaN,chair,chair,cr,0327_cl_dnn_cr_chair_40_n02791124_392.png
barlow_twins,1,328,NaN,bicycle,clock,bw,0328_cl_dnn_bw_clock_40_n04548280_3330.png
barlow_twins,1,329,NaN,cat,car,cr,0329_cl_dnn_cr_car_40_n02814533_83614.png
barlow_twins,1,330,NaN,oven,bear,cr,0330_cl_dnn_cr_bear_40_n02134418_3846.png
barlow_twins,1,331,NaN,bicycle,elephant,cr,0331_cl_dnn_cr_elephant_40_n02504013_811.png
barlow_twins,1,332,NaN,airplane,airplane,bw,0332_cl_dnn_bw_airplane_40_n02690373_1442.png
barlow_twins,1,333,NaN,clock,chair,cr,0333_cl_dnn_cr_chair_40_n03376595_6691.png
barlow_twins,1,334,NaN,airplane,bird,bw,0334_cl_dnn_bw_bird_40_n01616318_1071.png
barlow_twins,1,335,NaN,oven,boat,cr,0335_cl_dnn_cr_boat_40_n03662601_8333.png
barlow_twins,1,336,NaN,airplane,truck,cr,0336_cl_dnn_cr_truck_40_n03796401_9384.png
barlow_twins,1,337,NaN,airplane,bottle,cr,0337_cl_dnn_cr_bottle_40_n04560804_19001.png
barlow_twins,1,338,NaN,knife,cat,cr,0338_cl_dnn_cr_cat_40_n02123045_7646.png
barlow_twins,1,339,NaN,clock,elephant,cr,0339_cl_dnn_cr_elephant_40_n02504013_3599.png
barlow_twins,1,340,NaN,elephant,clock,cr,0340_cl_dnn_cr_clock_40_n03196217_1109.png
barlow_twins,1,341,NaN,clock,boat,bw,0341_cl_dnn_bw_boat_40_n03344393_5322.png
barlow_twins,1,342,NaN,knife,dog,cr,0342_cl_dnn_cr_dog_40_n02090622_11748.png
barlow_twins,1,343,NaN,airplane,knife,cr,0343_cl_dnn_cr_knife_40_n03041632_20707.png
barlow_twins,1,344,NaN,chair,keyboard,cr,0344_cl_dnn_cr_keyboard_40_n03085013_8936.png
barlow_twins,1,345,NaN,knife,airplane,cr,0345_cl_dnn_cr_airplane_40_n02690373_4695.png
barlow_twins,1,346,NaN,car,oven,bw,0346_cl_dnn_bw_oven_40_n04111531_16463.png
barlow_twins,1,347,NaN,oven,dog,bw,0347_cl_dnn_bw_dog_40_n02099712_1234.png
barlow_twins,1,348,NaN,oven,boat,bw,0348_cl_dnn_bw_boat_40_n03662601_17361.png
barlow_twins,1,349,NaN,car,oven,cr,0349_cl_dnn_cr_oven_40_n04111531_12929.png
barlow_twins,1,350,NaN,clock,truck,bw,0350_cl_dnn_bw_truck_40_n03417042_2056.png
barlow_twins,1,351,NaN,keyboard,oven,cr,0351_cl_dnn_cr_oven_40_n04111531_2937.png
barlow_twins,1,352,NaN,clock,boat,bw,0352_cl_dnn_bw_boat_40_n04273569_23705.png
barlow_twins,1,353,NaN,car,boat,cr,0353_cl_dnn_cr_boat_40_n02951358_8456.png
barlow_twins,1,354,NaN,airplane,bottle,bw,0354_cl_dnn_bw_bottle_40_n03983396_11632.png
barlow_twins,1,355,NaN,clock,bicycle,bw,0355_cl_dnn_bw_bicycle_40_n02835271_506.png
barlow_twins,1,356,NaN,airplane,keyboard,cr,0356_cl_dnn_cr_keyboard_40_n04505470_665.png
barlow_twins,1,357,NaN,clock,bear,bw,0357_cl_dnn_bw_bear_40_n02132136_390.png
barlow_twins,1,358,NaN,elephant,bear,cr,0358_cl_dnn_cr_bear_40_n02134084_13663.png
barlow_twins,1,359,NaN,knife,airplane,cr,0359_cl_dnn_cr_airplane_40_n02690373_2837.png
barlow_twins,1,360,NaN,airplane,airplane,bw,0360_cl_dnn_bw_airplane_40_n02690373_1492.png
barlow_twins,1,361,NaN,airplane,car,cr,0361_cl_dnn_cr_car_40_n03100240_14252.png
barlow_twins,1,362,NaN,car,elephant,bw,0362_cl_dnn_bw_elephant_40_n02504458_4908.png
barlow_twins,1,363,NaN,chair,bird,bw,0363_cl_dnn_bw_bird_40_n01582220_5821.png
barlow_twins,1,364,NaN,bicycle,cat,cr,0364_cl_dnn_cr_cat_40_n02123045_2968.png
barlow_twins,1,365,NaN,boat,dog,cr,0365_cl_dnn_cr_dog_40_n02088466_1671.png
barlow_twins,1,366,NaN,oven,boat,bw,0366_cl_dnn_bw_boat_40_n03344393_7659.png
barlow_twins,1,367,NaN,clock,bicycle,bw,0367_cl_dnn_bw_bicycle_40_n03792782_3783.png
barlow_twins,1,368,NaN,knife,airplane,cr,0368_cl_dnn_cr_airplane_40_n02690373_2059.png
barlow_twins,1,369,NaN,car,keyboard,cr,0369_cl_dnn_cr_keyboard_40_n03085013_19483.png
barlow_twins,1,370,NaN,clock,bicycle,bw,0370_cl_dnn_bw_bicycle_40_n03792782_2960.png
barlow_twins,1,371,NaN,clock,keyboard,cr,0371_cl_dnn_cr_keyboard_40_n03085013_24538.png
barlow_twins,1,372,NaN,clock,cat,cr,0372_cl_dnn_cr_cat_40_n02123597_9656.png
barlow_twins,1,373,NaN,oven,car,cr,0373_cl_dnn_cr_car_40_n04285008_1085.png
barlow_twins,1,374,NaN,bear,dog,cr,0374_cl_dnn_cr_dog_40_n02102177_5870.png
barlow_twins,1,375,NaN,clock,boat,cr,0375_cl_dnn_cr_boat_40_n03662601_24852.png
barlow_twins,1,376,NaN,airplane,bicycle,cr,0376_cl_dnn_cr_bicycle_40_n03792782_32379.png
barlow_twins,1,377,NaN,bottle,cat,cr,0377_cl_dnn_cr_cat_40_n02123597_12266.png
barlow_twins,1,378,NaN,clock,airplane,cr,0378_cl_dnn_cr_airplane_40_n02690373_713.png
barlow_twins,1,379,NaN,airplane,airplane,cr,0379_cl_dnn_cr_airplane_40_n02690373_6543.png
barlow_twins,1,380,NaN,airplane,oven,cr,0380_cl_dnn_cr_oven_40_n04111531_5888.png
barlow_twins,1,381,NaN,clock,dog,bw,0381_cl_dnn_bw_dog_40_n02099601_7304.png
barlow_twins,1,382,NaN,keyboard,bird,bw,0382_cl_dnn_bw_bird_40_n01819313_146.png
barlow_twins,1,383,NaN,airplane,car,bw,0383_cl_dnn_bw_car_40_n03100240_18873.png
barlow_twins,1,384,NaN,airplane,dog,bw,0384_cl_dnn_bw_dog_40_n02100583_2707.png
barlow_twins,1,385,NaN,airplane,dog,bw,0385_cl_dnn_bw_dog_40_n02105056_15484.png
barlow_twins,1,386,NaN,car,truck,bw,0386_cl_dnn_bw_truck_40_n04467665_66535.png
barlow_twins,1,387,NaN,oven,elephant,bw,0387_cl_dnn_bw_elephant_40_n02504458_12303.png
barlow_twins,1,388,NaN,clock,bottle,cr,0388_cl_dnn_cr_bottle_40_n03937543_4586.png
barlow_twins,1,389,NaN,clock,bird,cr,0389_cl_dnn_cr_bird_40_n02007558_19064.png
barlow_twins,1,390,NaN,airplane,oven,bw,0390_cl_dnn_bw_oven_40_n04111531_5904.png
barlow_twins,1,391,NaN,clock,keyboard,cr,0391_cl_dnn_cr_keyboard_40_n03085013_18625.png
barlow_twins,1,392,NaN,bicycle,bottle,cr,0392_cl_dnn_cr_bottle_40_n04579145_445.png
barlow_twins,1,393,NaN,airplane,keyboard,bw,0393_cl_dnn_bw_keyboard_40_n03085013_22820.png
barlow_twins,1,394,NaN,knife,truck,cr,0394_cl_dnn_cr_truck_40_n03417042_19479.png
barlow_twins,1,395,NaN,clock,bird,bw,0395_cl_dnn_bw_bird_40_n01833805_28946.png
barlow_twins,1,396,NaN,airplane,bottle,bw,0396_cl_dnn_bw_bottle_40_n04591713_3896.png
barlow_twins,1,397,NaN,knife,cat,cr,0397_cl_dnn_cr_cat_40_n02123159_782.png
barlow_twins,1,398,NaN,clock,keyboard,bw,0398_cl_dnn_bw_keyboard_40_n04505470_464.png
barlow_twins,1,399,NaN,bear,bird,cr,0399_cl_dnn_cr_bird_40_n01558993_3939.png
barlow_twins,1,400,NaN,keyboard,boat,cr,0400_cl_dnn_cr_boat_40_n04273569_3052.png
barlow_twins,1,401,NaN,keyboard,knife,bw,0401_cl_dnn_bw_knife_40_n03041632_85416.png
barlow_twins,1,402,NaN,airplane,car,bw,0402_cl_dnn_bw_car_40_n02814533_51154.png
barlow_twins,1,403,NaN,clock,airplane,bw,0403_cl_dnn_bw_airplane_40_n02690373_6516.png
barlow_twins,1,404,NaN,knife,airplane,cr,0404_cl_dnn_cr_airplane_40_n02690373_12813.png
barlow_twins,1,405,NaN,knife,airplane,bw,0405_cl_dnn_bw_airplane_40_n02690373_6406.png
barlow_twins,1,406,NaN,bear,chair,cr,0406_cl_dnn_cr_chair_40_n03376595_8228.png
barlow_twins,1,407,NaN,bicycle,chair,bw,0407_cl_dnn_bw_chair_40_n04099969_6309.png
barlow_twins,1,408,NaN,boat,elephant,cr,0408_cl_dnn_cr_elephant_40_n02504013_19831.png
barlow_twins,1,409,NaN,airplane,bottle,bw,0409_cl_dnn_bw_bottle_40_n03937543_5088.png
barlow_twins,1,410,NaN,clock,elephant,cr,0410_cl_dnn_cr_elephant_40_n02504458_2190.png
barlow_twins,1,411,NaN,clock,car,bw,0411_cl_dnn_bw_car_40_n04285008_5997.png
barlow_twins,1,412,NaN,airplane,knife,cr,0412_cl_dnn_cr_knife_40_n03041632_94620.png
barlow_twins,1,413,NaN,clock,bicycle,cr,0413_cl_dnn_cr_bicycle_40_n02835271_8125.png
barlow_twins,1,414,NaN,car,oven,cr,0414_cl_dnn_cr_oven_40_n04111531_4662.png
barlow_twins,1,415,NaN,car,dog,bw,0415_cl_dnn_bw_dog_40_n02110806_21755.png
barlow_twins,1,416,NaN,airplane,bottle,bw,0416_cl_dnn_bw_bottle_40_n02823428_3505.png
barlow_twins,1,417,NaN,bicycle,cat,cr,0417_cl_dnn_cr_cat_40_n02123045_11472.png
barlow_twins,1,418,NaN,knife,boat,cr,0418_cl_dnn_cr_boat_40_n03662601_14818.png
barlow_twins,1,419,NaN,clock,bicycle,cr,0419_cl_dnn_cr_bicycle_40_n02835271_8322.png
barlow_twins,1,420,NaN,bicycle,knife,bw,0420_cl_dnn_bw_knife_40_n03041632_9580.png
barlow_twins,1,421,NaN,keyboard,dog,bw,0421_cl_dnn_bw_dog_40_n02088466_3052.png
barlow_twins,1,422,NaN,airplane,keyboard,cr,0422_cl_dnn_cr_keyboard_40_n04505470_7161.png
barlow_twins,1,423,NaN,keyboard,keyboard,cr,0423_cl_dnn_cr_keyboard_40_n04505470_2321.png
barlow_twins,1,424,NaN,airplane,knife,cr,0424_cl_dnn_cr_knife_40_n03041632_6708.png
barlow_twins,1,425,NaN,elephant,keyboard,bw,0425_cl_dnn_bw_keyboard_40_n04505470_4965.png
barlow_twins,1,426,NaN,bicycle,cat,bw,0426_cl_dnn_bw_cat_40_n02123597_11981.png
barlow_twins,1,427,NaN,airplane,truck,cr,0427_cl_dnn_cr_truck_40_n03417042_2778.png
barlow_twins,1,428,NaN,bear,car,cr,0428_cl_dnn_cr_car_40_n02814533_80049.png
barlow_twins,1,429,NaN,bear,keyboard,cr,0429_cl_dnn_cr_keyboard_40_n03085013_23561.png
barlow_twins,1,430,NaN,bicycle,airplane,bw,0430_cl_dnn_bw_airplane_40_n02690373_1800.png
barlow_twins,1,431,NaN,clock,chair,bw,0431_cl_dnn_bw_chair_40_n02791124_4306.png
barlow_twins,1,432,NaN,clock,knife,bw,0432_cl_dnn_bw_knife_40_n03041632_33424.png
barlow_twins,1,433,NaN,clock,boat,cr,0433_cl_dnn_cr_boat_40_n04273569_111.png
barlow_twins,1,434,NaN,boat,bear,bw,0434_cl_dnn_bw_bear_40_n02132136_4403.png
barlow_twins,1,435,NaN,clock,bicycle,bw,0435_cl_dnn_bw_bicycle_40_n03792782_49707.png
barlow_twins,1,436,NaN,clock,bicycle,cr,0436_cl_dnn_cr_bicycle_40_n02835271_3308.png
barlow_twins,1,437,NaN,car,clock,bw,0437_cl_dnn_bw_clock_40_n04548280_3305.png
barlow_twins,1,438,NaN,airplane,boat,bw,0438_cl_dnn_bw_boat_40_n03344393_7614.png
barlow_twins,1,439,NaN,clock,bicycle,bw,0439_cl_dnn_bw_bicycle_40_n02835271_9434.png
barlow_twins,1,440,NaN,airplane,truck,bw,0440_cl_dnn_bw_truck_40_n03417042_3039.png
barlow_twins,1,441,NaN,car,oven,cr,0441_cl_dnn_cr_oven_40_n04111531_5519.png
barlow_twins,1,442,NaN,clock,bottle,cr,0442_cl_dnn_cr_bottle_40_n03983396_3702.png
barlow_twins,1,443,NaN,airplane,clock,cr,0443_cl_dnn_cr_clock_40_n04548280_2177.png
barlow_twins,1,444,NaN,airplane,bottle,cr,0444_cl_dnn_cr_bottle_40_n03983396_4132.png
barlow_twins,1,445,NaN,knife,bicycle,cr,0445_cl_dnn_cr_bicycle_40_n02835271_17509.png
barlow_twins,1,446,NaN,clock,airplane,bw,0446_cl_dnn_bw_airplane_40_n02690373_3090.png
barlow_twins,1,447,NaN,clock,chair,cr,0447_cl_dnn_cr_chair_40_n03376595_1302.png
barlow_twins,1,448,NaN,airplane,dog,cr,0448_cl_dnn_cr_dog_40_n02107683_3640.png
barlow_twins,1,449,NaN,clock,car,cr,0449_cl_dnn_cr_car_40_n03100240_770.png
barlow_twins,1,450,NaN,clock,knife,cr,0450_cl_dnn_cr_knife_40_n03041632_4305.png
barlow_twins,1,451,NaN,oven,elephant,cr,0451_cl_dnn_cr_elephant_40_n02504013_4590.png
barlow_twins,1,452,NaN,oven,truck,cr,0452_cl_dnn_cr_truck_40_n03417042_5752.png
barlow_twins,1,453,NaN,bear,oven,cr,0453_cl_dnn_cr_oven_40_n04111531_21931.png
barlow_twins,1,454,NaN,clock,elephant,bw,0454_cl_dnn_bw_elephant_40_n02504458_4711.png
barlow_twins,1,455,NaN,airplane,clock,bw,0455_cl_dnn_bw_clock_40_n02708093_8033.png
barlow_twins,1,456,NaN,clock,bicycle,bw,0456_cl_dnn_bw_bicycle_40_n03792782_41992.png
barlow_twins,1,457,NaN,airplane,keyboard,cr,0457_cl_dnn_cr_keyboard_40_n03085013_5622.png
barlow_twins,1,458,NaN,clock,bird,bw,0458_cl_dnn_bw_bird_40_n02009912_1919.png
barlow_twins,1,459,NaN,airplane,bottle,cr,0459_cl_dnn_cr_bottle_40_n03937543_4202.png
barlow_twins,1,460,NaN,airplane,bicycle,bw,0460_cl_dnn_bw_bicycle_40_n02835271_4341.png
barlow_twins,1,461,NaN,clock,bear,bw,0461_cl_dnn_bw_bear_40_n02132136_18543.png
barlow_twins,1,462,NaN,knife,cat,bw,0462_cl_dnn_bw_cat_40_n02124075_14425.png
barlow_twins,1,463,NaN,airplane,clock,bw,0463_cl_dnn_bw_clock_40_n02708093_544.png
barlow_twins,1,464,NaN,boat,bear,cr,0464_cl_dnn_cr_bear_40_n02133161_7604.png
barlow_twins,1,465,NaN,airplane,car,bw,0465_cl_dnn_bw_car_40_n03100240_15407.png
barlow_twins,1,466,NaN,car,bicycle,bw,0466_cl_dnn_bw_bicycle_40_n02835271_12926.png
barlow_twins,1,467,NaN,car,chair,cr,0467_cl_dnn_cr_chair_40_n03376595_2056.png
barlow_twins,1,468,NaN,bicycle,oven,bw,0468_cl_dnn_bw_oven_40_n04111531_9762.png
barlow_twins,1,469,NaN,oven,bicycle,bw,0469_cl_dnn_bw_bicycle_40_n03792782_25799.png
barlow_twins,1,470,NaN,car,oven,cr,0470_cl_dnn_cr_oven_40_n04111531_3570.png
barlow_twins,1,471,NaN,bottle,car,cr,0471_cl_dnn_cr_car_40_n04285008_874.png
barlow_twins,1,472,NaN,bottle,bottle,cr,0472_cl_dnn_cr_bottle_40_n04557648_364.png
barlow_twins,1,473,NaN,airplane,airplane,bw,0473_cl_dnn_bw_airplane_40_n02690373_8461.png
barlow_twins,1,474,NaN,clock,boat,cr,0474_cl_dnn_cr_boat_40_n04273569_1087.png
barlow_twins,1,475,NaN,airplane,chair,cr,0475_cl_dnn_cr_chair_40_n03376595_1798.png
barlow_twins,1,476,NaN,airplane,oven,cr,0476_cl_dnn_cr_oven_40_n04111531_5290.png
barlow_twins,1,477,NaN,bicycle,cat,bw,0477_cl_dnn_bw_cat_40_n02124075_12369.png
barlow_twins,1,478,NaN,airplane,elephant,bw,0478_cl_dnn_bw_elephant_40_n02504458_3714.png
barlow_twins,1,479,NaN,airplane,bicycle,bw,0479_cl_dnn_bw_bicycle_40_n03792782_7388.png
barlow_twins,1,480,NaN,knife,truck,cr,0480_cl_dnn_cr_truck_40_n03796401_18240.png
barlow_twins,1,481,NaN,knife,airplane,cr,0481_cl_dnn_cr_airplane_40_n02690373_610.png
barlow_twins,1,482,NaN,knife,airplane,bw,0482_cl_dnn_bw_airplane_40_n02690373_6046.png
barlow_twins,1,483,NaN,oven,dog,cr,0483_cl_dnn_cr_dog_40_n02105505_4069.png
barlow_twins,1,484,NaN,airplane,chair,bw,0484_cl_dnn_bw_chair_40_n04429376_1954.png
barlow_twins,1,485,NaN,airplane,oven,bw,0485_cl_dnn_bw_oven_40_n04111531_7862.png
barlow_twins,1,486,NaN,clock,chair,cr,0486_cl_dnn_cr_chair_40_n02791124_7424.png
barlow_twins,1,487,NaN,bicycle,dog,bw,0487_cl_dnn_bw_dog_40_n02088466_5521.png
barlow_twins,1,488,NaN,clock,bear,cr,0488_cl_dnn_cr_bear_40_n02133161_12868.png
barlow_twins,1,489,NaN,airplane,keyboard,bw,0489_cl_dnn_bw_keyboard_40_n04505470_4107.png
barlow_twins,1,490,NaN,oven,boat,bw,0490_cl_dnn_bw_boat_40_n03662601_855.png
barlow_twins,1,491,NaN,clock,bird,cr,0491_cl_dnn_cr_bird_40_n02017213_7558.png
barlow_twins,1,492,NaN,airplane,bottle,bw,0492_cl_dnn_bw_bottle_40_n04557648_23801.png
barlow_twins,1,493,NaN,airplane,bird,bw,0493_cl_dnn_bw_bird_40_n01601694_13054.png
barlow_twins,1,494,NaN,airplane,oven,bw,0494_cl_dnn_bw_oven_40_n04111531_2207.png
barlow_twins,1,495,NaN,clock,bird,bw,0495_cl_dnn_bw_bird_40_n02009912_9425.png
barlow_twins,1,496,NaN,bear,clock,cr,0496_cl_dnn_cr_clock_40_n03196217_6193.png
barlow_twins,1,497,NaN,knife,boat,bw,0497_cl_dnn_bw_boat_40_n04273569_27625.png
barlow_twins,1,498,NaN,airplane,truck,bw,0498_cl_dnn_bw_truck_40_n03417042_29855.png
barlow_twins,1,499,NaN,clock,bottle,cr,0499_cl_dnn_cr_bottle_40_n03983396_4212.png
barlow_twins,1,500,NaN,bicycle,cat,bw,0500_cl_dnn_bw_cat_40_n02123597_11613.png
barlow_twins,1,501,NaN,bicycle,clock,cr,0501_cl_dnn_cr_clock_40_n02708093_1559.png
barlow_twins,1,502,NaN,bottle,chair,cr,0502_cl_dnn_cr_chair_40_n02791124_7031.png
barlow_twins,1,503,NaN,clock,bottle,cr,0503_cl_dnn_cr_bottle_40_n04560804_1703.png
barlow_twins,1,504,NaN,airplane,bottle,bw,0504_cl_dnn_bw_bottle_40_n04560804_15679.png
barlow_twins,1,505,NaN,bicycle,bottle,bw,0505_cl_dnn_bw_bottle_40_n03983396_1006.png
barlow_twins,1,506,NaN,bicycle,knife,bw,0506_cl_dnn_bw_knife_40_n03041632_100645.png
barlow_twins,1,507,NaN,oven,car,cr,0507_cl_dnn_cr_car_40_n02814533_54845.png
barlow_twins,1,508,NaN,clock,keyboard,cr,0508_cl_dnn_cr_keyboard_40_n03085013_20078.png
barlow_twins,1,509,NaN,boat,chair,cr,0509_cl_dnn_cr_chair_40_n04099969_4543.png
barlow_twins,1,510,NaN,bicycle,bear,cr,0510_cl_dnn_cr_bear_40_n02134418_1253.png
barlow_twins,1,511,NaN,knife,bicycle,bw,0511_cl_dnn_bw_bicycle_40_n02835271_8137.png
barlow_twins,1,512,NaN,airplane,keyboard,bw,0512_cl_dnn_bw_keyboard_40_n04505470_7312.png
barlow_twins,1,513,NaN,oven,elephant,cr,0513_cl_dnn_cr_elephant_40_n02504013_2460.png
barlow_twins,1,514,NaN,airplane,clock,cr,0514_cl_dnn_cr_clock_40_n04548280_13469.png
barlow_twins,1,515,NaN,airplane,chair,cr,0515_cl_dnn_cr_chair_40_n02791124_3161.png
barlow_twins,1,516,NaN,clock,dog,cr,0516_cl_dnn_cr_dog_40_n02093647_1818.png
barlow_twins,1,517,NaN,bicycle,chair,cr,0517_cl_dnn_cr_chair_40_n02791124_4294.png
barlow_twins,1,518,NaN,bicycle,cat,cr,0518_cl_dnn_cr_cat_40_n02124075_3533.png
barlow_twins,1,519,NaN,bicycle,boat,cr,0519_cl_dnn_cr_boat_40_n03344393_2480.png
barlow_twins,1,520,NaN,clock,car,bw,0520_cl_dnn_bw_car_40_n02814533_95054.png
barlow_twins,1,521,NaN,clock,bottle,cr,0521_cl_dnn_cr_bottle_40_n03937543_1808.png
barlow_twins,1,522,NaN,clock,car,cr,0522_cl_dnn_cr_car_40_n02814533_72213.png
barlow_twins,1,523,NaN,airplane,clock,cr,0523_cl_dnn_cr_clock_40_n03196217_1499.png
barlow_twins,1,524,NaN,keyboard,cat,cr,0524_cl_dnn_cr_cat_40_n02123045_5300.png
barlow_twins,1,525,NaN,clock,bird,bw,0525_cl_dnn_bw_bird_40_n02006656_3185.png
barlow_twins,1,526,NaN,clock,clock,cr,0526_cl_dnn_cr_clock_40_n03196217_4541.png
barlow_twins,1,527,NaN,bicycle,cat,cr,0527_cl_dnn_cr_cat_40_n02123159_2317.png
barlow_twins,1,528,NaN,airplane,bear,cr,0528_cl_dnn_cr_bear_40_n02133161_1362.png
barlow_twins,1,529,NaN,airplane,clock,bw,0529_cl_dnn_bw_clock_40_n04548280_1202.png
barlow_twins,1,530,NaN,airplane,dog,bw,0530_cl_dnn_bw_dog_40_n02095570_6717.png
barlow_twins,1,531,NaN,airplane,car,bw,0531_cl_dnn_bw_car_40_n03100240_15941.png
barlow_twins,1,532,NaN,clock,chair,bw,0532_cl_dnn_bw_chair_40_n02791124_1443.png
barlow_twins,1,533,NaN,airplane,bottle,cr,0533_cl_dnn_cr_bottle_40_n04557648_830.png
barlow_twins,1,534,NaN,knife,truck,cr,0534_cl_dnn_cr_truck_40_n03417042_8298.png
barlow_twins,1,535,NaN,bicycle,clock,bw,0535_cl_dnn_bw_clock_40_n02708093_4569.png
barlow_twins,1,536,NaN,bear,keyboard,cr,0536_cl_dnn_cr_keyboard_40_n03085013_7576.png
barlow_twins,1,537,NaN,airplane,truck,bw,0537_cl_dnn_bw_truck_40_n03417042_27093.png
barlow_twins,1,538,NaN,boat,elephant,cr,0538_cl_dnn_cr_elephant_40_n02504013_13560.png
barlow_twins,1,539,NaN,bear,car,bw,0539_cl_dnn_bw_car_40_n04285008_12045.png
barlow_twins,1,540,NaN,knife,airplane,cr,0540_cl_dnn_cr_airplane_40_n02690373_5176.png
barlow_twins,1,541,NaN,clock,bicycle,bw,0541_cl_dnn_bw_bicycle_40_n03792782_6194.png
barlow_twins,1,542,NaN,airplane,oven,cr,0542_cl_dnn_cr_oven_40_n04111531_15912.png
barlow_twins,1,543,NaN,airplane,oven,cr,0543_cl_dnn_cr_oven_40_n04111531_2592.png
barlow_twins,1,544,NaN,clock,bird,cr,0544_cl_dnn_cr_bird_40_n02011460_2435.png
barlow_twins,1,545,NaN,clock,car,cr,0545_cl_dnn_cr_car_40_n02814533_33205.png
barlow_twins,1,546,NaN,clock,oven,bw,0546_cl_dnn_bw_oven_40_n04111531_14959.png
barlow_twins,1,547,NaN,bicycle,clock,cr,0547_cl_dnn_cr_clock_40_n04548280_6743.png
barlow_twins,1,548,NaN,clock,knife,bw,0548_cl_dnn_bw_knife_40_n03041632_15299.png
barlow_twins,1,549,NaN,airplane,clock,bw,0549_cl_dnn_bw_clock_40_n03196217_127.png
barlow_twins,1,550,NaN,airplane,boat,bw,0550_cl_dnn_bw_boat_40_n04273569_12917.png
barlow_twins,1,551,NaN,knife,airplane,cr,0551_cl_dnn_cr_airplane_40_n02690373_9626.png
barlow_twins,1,552,NaN,elephant,bear,cr,0552_cl_dnn_cr_bear_40_n02134084_20500.png
barlow_twins,1,553,NaN,bicycle,bear,bw,0553_cl_dnn_bw_bear_40_n02132136_6890.png
barlow_twins,1,554,NaN,airplane,bottle,bw,0554_cl_dnn_bw_bottle_40_n02823428_3049.png
barlow_twins,1,555,NaN,clock,keyboard,cr,0555_cl_dnn_cr_keyboard_40_n03085013_22837.png
barlow_twins,1,556,NaN,bear,keyboard,bw,0556_cl_dnn_bw_keyboard_40_n03085013_3264.png
barlow_twins,1,557,NaN,bicycle,bear,bw,0557_cl_dnn_bw_bear_40_n02134418_7795.png
barlow_twins,1,558,NaN,airplane,boat,bw,0558_cl_dnn_bw_boat_40_n02951358_34163.png
barlow_twins,1,559,NaN,oven,bear,cr,0559_cl_dnn_cr_bear_40_n02132136_8637.png
barlow_twins,1,560,NaN,knife,truck,cr,0560_cl_dnn_cr_truck_40_n03417042_4218.png
barlow_twins,1,561,NaN,chair,clock,bw,0561_cl_dnn_bw_clock_40_n04548280_4473.png
barlow_twins,1,562,NaN,clock,bear,bw,0562_cl_dnn_bw_bear_40_n02132136_21799.png
barlow_twins,1,563,NaN,clock,bird,cr,0563_cl_dnn_cr_bird_40_n01531178_5780.png
barlow_twins,1,564,NaN,knife,truck,cr,0564_cl_dnn_cr_truck_40_n03796401_27184.png
barlow_twins,1,565,NaN,airplane,clock,bw,0565_cl_dnn_bw_clock_40_n03196217_5258.png
barlow_twins,1,566,NaN,car,bird,cr,0566_cl_dnn_cr_bird_40_n02002556_15337.png
barlow_twins,1,567,NaN,clock,bottle,cr,0567_cl_dnn_cr_bottle_40_n04560804_3683.png
barlow_twins,1,568,NaN,car,bicycle,cr,0568_cl_dnn_cr_bicycle_40_n02835271_8511.png
barlow_twins,1,569,NaN,elephant,bear,cr,0569_cl_dnn_cr_bear_40_n02134084_23974.png
barlow_twins,1,570,NaN,clock,dog,bw,0570_cl_dnn_bw_dog_40_n02091244_9271.png
barlow_twins,1,571,NaN,chair,bear,cr,0571_cl_dnn_cr_bear_40_n02133161_6946.png
barlow_twins,1,572,NaN,knife,truck,bw,0572_cl_dnn_bw_truck_40_n04467665_10060.png
barlow_twins,1,573,NaN,car,oven,bw,0573_cl_dnn_bw_oven_40_n04111531_5328.png
barlow_twins,1,574,NaN,clock,bottle,cr,0574_cl_dnn_cr_bottle_40_n04560804_2005.png
barlow_twins,1,575,NaN,oven,bear,bw,0575_cl_dnn_bw_bear_40_n02134084_3695.png
barlow_twins,1,576,NaN,bicycle,cat,bw,0576_cl_dnn_bw_cat_40_n02123597_2219.png
barlow_twins,1,577,NaN,bicycle,chair,bw,0577_cl_dnn_bw_chair_40_n02791124_6077.png
barlow_twins,1,578,NaN,knife,bottle,cr,0578_cl_dnn_cr_bottle_40_n04579145_7431.png
barlow_twins,1,579,NaN,keyboard,keyboard,bw,0579_cl_dnn_bw_keyboard_40_n04505470_510.png
barlow_twins,1,580,NaN,airplane,oven,cr,0580_cl_dnn_cr_oven_40_n04111531_4452.png
barlow_twins,1,581,NaN,elephant,elephant,bw,0581_cl_dnn_bw_elephant_40_n02504013_237.png
barlow_twins,1,582,NaN,bicycle,elephant,cr,0582_cl_dnn_cr_elephant_40_n02504013_10351.png
barlow_twins,1,583,NaN,oven,elephant,cr,0583_cl_dnn_cr_elephant_40_n02504458_1304.png
barlow_twins,1,584,NaN,oven,dog,bw,0584_cl_dnn_bw_dog_40_n02104365_9837.png
barlow_twins,1,585,NaN,airplane,cat,cr,0585_cl_dnn_cr_cat_40_n02123045_9661.png
barlow_twins,1,586,NaN,airplane,bottle,bw,0586_cl_dnn_bw_bottle_40_n02823428_5214.png
barlow_twins,1,587,NaN,car,bird,bw,0587_cl_dnn_bw_bird_40_n01828970_5448.png
barlow_twins,1,588,NaN,airplane,car,cr,0588_cl_dnn_cr_car_40_n02814533_83874.png
barlow_twins,1,589,NaN,airplane,oven,bw,0589_cl_dnn_bw_oven_40_n04111531_8036.png
barlow_twins,1,590,NaN,airplane,oven,cr,0590_cl_dnn_cr_oven_40_n04111531_7355.png
barlow_twins,1,591,NaN,bicycle,car,bw,0591_cl_dnn_bw_car_40_n04285008_13354.png
barlow_twins,1,592,NaN,clock,clock,cr,0592_cl_dnn_cr_clock_40_n02708093_8267.png
barlow_twins,1,593,NaN,keyboard,cat,bw,0593_cl_dnn_bw_cat_40_n02124075_14242.png
barlow_twins,1,594,NaN,bicycle,knife,cr,0594_cl_dnn_cr_knife_40_n03041632_4279.png
barlow_twins,1,595,NaN,airplane,oven,cr,0595_cl_dnn_cr_oven_40_n04111531_2296.png
barlow_twins,1,596,NaN,oven,boat,cr,0596_cl_dnn_cr_boat_40_n03344393_5859.png
barlow_twins,1,597,NaN,car,car,cr,0597_cl_dnn_cr_car_40_n02814533_57176.png
barlow_twins,1,598,NaN,bicycle,cat,bw,0598_cl_dnn_bw_cat_40_n02123159_1769.png
barlow_twins,1,599,NaN,airplane,clock,cr,0599_cl_dnn_cr_clock_40_n02708093_4976.png
barlow_twins,1,600,NaN,bicycle,truck,cr,0600_cl_dnn_cr_truck_40_n03796401_8864.png
barlow_twins,1,601,NaN,bear,clock,bw,0601_cl_dnn_bw_clock_40_n03196217_868.png
barlow_twins,1,602,NaN,bicycle,keyboard,bw,0602_cl_dnn_bw_keyboard_40_n03085013_3910.png
barlow_twins,1,603,NaN,clock,bicycle,cr,0603_cl_dnn_cr_bicycle_40_n03792782_5466.png
barlow_twins,1,604,NaN,clock,bear,bw,0604_cl_dnn_bw_bear_40_n02132136_23248.png
barlow_twins,1,605,NaN,airplane,truck,bw,0605_cl_dnn_bw_truck_40_n03417042_2794.png
barlow_twins,1,606,NaN,car,chair,bw,0606_cl_dnn_bw_chair_40_n02791124_7324.png
barlow_twins,1,607,NaN,oven,bicycle,bw,0607_cl_dnn_bw_bicycle_40_n02835271_6736.png
barlow_twins,1,608,NaN,bicycle,clock,bw,0608_cl_dnn_bw_clock_40_n04548280_8990.png
barlow_twins,1,609,NaN,knife,airplane,bw,0609_cl_dnn_bw_airplane_40_n02690373_971.png
barlow_twins,1,610,NaN,clock,bear,bw,0610_cl_dnn_bw_bear_40_n02132136_23853.png
barlow_twins,1,611,NaN,chair,clock,cr,0611_cl_dnn_cr_clock_40_n03196217_3416.png
barlow_twins,1,612,NaN,airplane,clock,bw,0612_cl_dnn_bw_clock_40_n04548280_4346.png
barlow_twins,1,613,NaN,knife,oven,cr,0613_cl_dnn_cr_oven_40_n04111531_2342.png
barlow_twins,1,614,NaN,clock,chair,bw,0614_cl_dnn_bw_chair_40_n04099969_8509.png
barlow_twins,1,615,NaN,elephant,bottle,bw,0615_cl_dnn_bw_bottle_40_n03937543_4340.png
barlow_twins,1,616,NaN,clock,clock,bw,0616_cl_dnn_bw_clock_40_n02708093_6655.png
barlow_twins,1,617,NaN,bicycle,cat,cr,0617_cl_dnn_cr_cat_40_n02123159_1339.png
barlow_twins,1,618,NaN,airplane,knife,bw,0618_cl_dnn_bw_knife_40_n03041632_30553.png
barlow_twins,1,619,NaN,clock,bicycle,cr,0619_cl_dnn_cr_bicycle_40_n03792782_18707.png
barlow_twins,1,620,NaN,oven,elephant,bw,0620_cl_dnn_bw_elephant_40_n02504458_3648.png
barlow_twins,1,621,NaN,boat,elephant,cr,0621_cl_dnn_cr_elephant_40_n02504458_1179.png
barlow_twins,1,622,NaN,knife,clock,bw,0622_cl_dnn_bw_clock_40_n02708093_391.png
barlow_twins,1,623,NaN,knife,car,cr,0623_cl_dnn_cr_car_40_n04285008_3453.png
barlow_twins,1,624,NaN,clock,airplane,bw,0624_cl_dnn_bw_airplane_40_n02690373_2800.png
barlow_twins,1,625,NaN,elephant,cat,cr,0625_cl_dnn_cr_cat_40_n02123394_979.png
barlow_twins,1,626,NaN,airplane,dog,cr,0626_cl_dnn_cr_dog_40_n02105641_4701.png
barlow_twins,1,627,NaN,clock,boat,cr,0627_cl_dnn_cr_boat_40_n04273569_13641.png
barlow_twins,1,628,NaN,car,car,cr,0628_cl_dnn_cr_car_40_n02814533_74825.png
barlow_twins,1,629,NaN,knife,airplane,cr,0629_cl_dnn_cr_airplane_40_n02690373_6812.png
barlow_twins,1,630,NaN,clock,car,bw,0630_cl_dnn_bw_car_40_n03100240_19223.png
barlow_twins,1,631,NaN,clock,bottle,bw,0631_cl_dnn_bw_bottle_40_n03983396_3817.png
barlow_twins,1,632,NaN,car,elephant,bw,0632_cl_dnn_bw_elephant_40_n02504013_1432.png
barlow_twins,1,633,NaN,knife,boat,cr,0633_cl_dnn_cr_boat_40_n03662601_35008.png
barlow_twins,1,634,NaN,airplane,oven,bw,0634_cl_dnn_bw_oven_40_n04111531_14055.png
barlow_twins,1,635,NaN,knife,airplane,bw,0635_cl_dnn_bw_airplane_40_n02690373_9812.png
barlow_twins,1,636,NaN,knife,car,cr,0636_cl_dnn_cr_car_40_n04285008_6200.png
barlow_twins,1,637,NaN,bicycle,clock,cr,0637_cl_dnn_cr_clock_40_n04548280_5889.png
barlow_twins,1,638,NaN,car,chair,bw,0638_cl_dnn_bw_chair_40_n03376595_2924.png
barlow_twins,1,639,NaN,knife,airplane,bw,0639_cl_dnn_bw_airplane_40_n02690373_693.png
barlow_twins,1,640,NaN,clock,bicycle,bw,0640_cl_dnn_bw_bicycle_40_n03792782_1778.png
barlow_twins,1,641,NaN,car,clock,cr,0641_cl_dnn_cr_clock_40_n02708093_444.png
barlow_twins,1,642,NaN,bicycle,clock,cr,0642_cl_dnn_cr_clock_40_n02708093_3385.png
barlow_twins,1,643,NaN,clock,clock,cr,0643_cl_dnn_cr_clock_40_n03196217_970.png
barlow_twins,1,644,NaN,airplane,clock,bw,0644_cl_dnn_bw_clock_40_n04548280_4839.png
barlow_twins,1,645,NaN,airplane,truck,bw,0645_cl_dnn_bw_truck_40_n03796401_1853.png
barlow_twins,1,646,NaN,car,bottle,bw,0646_cl_dnn_bw_bottle_40_n04591713_2680.png
barlow_twins,1,647,NaN,bicycle,clock,bw,0647_cl_dnn_bw_clock_40_n02708093_3691.png
barlow_twins,1,648,NaN,bicycle,cat,bw,0648_cl_dnn_bw_cat_40_n02123045_12762.png
barlow_twins,1,649,NaN,bicycle,cat,cr,0649_cl_dnn_cr_cat_40_n02124075_17464.png
barlow_twins,1,650,NaN,clock,chair,bw,0650_cl_dnn_bw_chair_40_n02791124_5690.png
barlow_twins,1,651,NaN,clock,bird,bw,0651_cl_dnn_bw_bird_40_n01592084_5361.png
barlow_twins,1,652,NaN,airplane,truck,cr,0652_cl_dnn_cr_truck_40_n04467665_34228.png
barlow_twins,1,653,NaN,airplane,bear,cr,0653_cl_dnn_cr_bear_40_n02133161_4282.png
barlow_twins,1,654,NaN,knife,cat,bw,0654_cl_dnn_bw_cat_40_n02125311_20219.png
barlow_twins,1,655,NaN,keyboard,bicycle,cr,0655_cl_dnn_cr_bicycle_40_n02835271_8502.png
barlow_twins,1,656,NaN,airplane,dog,bw,0656_cl_dnn_bw_dog_40_n02110958_5624.png
barlow_twins,1,657,NaN,clock,knife,bw,0657_cl_dnn_bw_knife_40_n03041632_35365.png
barlow_twins,1,658,NaN,oven,bear,bw,0658_cl_dnn_bw_bear_40_n02134418_399.png
barlow_twins,1,659,NaN,clock,bear,cr,0659_cl_dnn_cr_bear_40_n02132136_4314.png
barlow_twins,1,660,NaN,bicycle,keyboard,cr,0660_cl_dnn_cr_keyboard_40_n04505470_996.png
barlow_twins,1,661,NaN,knife,airplane,cr,0661_cl_dnn_cr_airplane_40_n02690373_3313.png
barlow_twins,1,662,NaN,airplane,knife,bw,0662_cl_dnn_bw_knife_40_n03041632_9302.png
barlow_twins,1,663,NaN,airplane,clock,bw,0663_cl_dnn_bw_clock_40_n04548280_7211.png
barlow_twins,1,664,NaN,boat,bird,cr,0664_cl_dnn_cr_bird_40_n01829413_122.png
barlow_twins,1,665,NaN,bear,keyboard,cr,0665_cl_dnn_cr_keyboard_40_n03085013_24001.png
barlow_twins,1,666,NaN,bicycle,bottle,cr,0666_cl_dnn_cr_bottle_40_n03937543_3219.png
barlow_twins,1,667,NaN,airplane,keyboard,bw,0667_cl_dnn_bw_keyboard_40_n03085013_19916.png
barlow_twins,1,668,NaN,bicycle,cat,cr,0668_cl_dnn_cr_cat_40_n02123159_6609.png
barlow_twins,1,669,NaN,bear,cat,bw,0669_cl_dnn_bw_cat_40_n02125311_17543.png
barlow_twins,1,670,NaN,bicycle,bear,bw,0670_cl_dnn_bw_bear_40_n02134418_1043.png
barlow_twins,1,671,NaN,bicycle,chair,bw,0671_cl_dnn_bw_chair_40_n04099969_43.png
barlow_twins,1,672,NaN,airplane,airplane,bw,0672_cl_dnn_bw_airplane_40_n02690373_1912.png
barlow_twins,1,673,NaN,oven,bicycle,cr,0673_cl_dnn_cr_bicycle_40_n02835271_1426.png
barlow_twins,1,674,NaN,clock,bicycle,bw,0674_cl_dnn_bw_bicycle_40_n03792782_47426.png
barlow_twins,1,675,NaN,knife,truck,cr,0675_cl_dnn_cr_truck_40_n03417042_27404.png
barlow_twins,1,676,NaN,bicycle,clock,cr,0676_cl_dnn_cr_clock_40_n04548280_4349.png
barlow_twins,1,677,NaN,oven,oven,bw,0677_cl_dnn_bw_oven_40_n04111531_8193.png
barlow_twins,1,678,NaN,bicycle,boat,bw,0678_cl_dnn_bw_boat_40_n03344393_11855.png
barlow_twins,1,679,NaN,airplane,bottle,bw,0679_cl_dnn_bw_bottle_40_n02823428_6830.png
barlow_twins,1,680,NaN,keyboard,bottle,bw,0680_cl_dnn_bw_bottle_40_n02823428_3298.png
barlow_twins,1,681,NaN,knife,oven,bw,0681_cl_dnn_bw_oven_40_n04111531_615.png
barlow_twins,1,682,NaN,car,clock,cr,0682_cl_dnn_cr_clock_40_n03196217_9736.png
barlow_twins,1,683,NaN,bicycle,clock,cr,0683_cl_dnn_cr_clock_40_n03196217_6293.png
barlow_twins,1,684,NaN,clock,bicycle,cr,0684_cl_dnn_cr_bicycle_40_n02835271_15524.png
barlow_twins,1,685,NaN,car,oven,cr,0685_cl_dnn_cr_oven_40_n04111531_10749.png
barlow_twins,1,686,NaN,clock,car,cr,0686_cl_dnn_cr_car_40_n03100240_9354.png
barlow_twins,1,687,NaN,airplane,chair,bw,0687_cl_dnn_bw_chair_40_n03376595_9695.png
barlow_twins,1,688,NaN,bicycle,cat,bw,0688_cl_dnn_bw_cat_40_n02125311_7729.png
barlow_twins,1,689,NaN,airplane,clock,cr,0689_cl_dnn_cr_clock_40_n04548280_7153.png
barlow_twins,1,690,NaN,bicycle,boat,cr,0690_cl_dnn_cr_boat_40_n03344393_3355.png
barlow_twins,1,691,NaN,clock,boat,bw,0691_cl_dnn_bw_boat_40_n02951358_381.png
barlow_twins,1,692,NaN,knife,boat,cr,0692_cl_dnn_cr_boat_40_n03344393_6226.png
barlow_twins,1,693,NaN,bicycle,car,bw,0693_cl_dnn_bw_car_40_n03100240_8206.png
barlow_twins,1,694,NaN,oven,boat,bw,0694_cl_dnn_bw_boat_40_n04273569_4044.png
barlow_twins,1,695,NaN,clock,bicycle,cr,0695_cl_dnn_cr_bicycle_40_n02835271_8180.png
barlow_twins,1,696,NaN,bicycle,bear,cr,0696_cl_dnn_cr_bear_40_n02134418_1063.png
barlow_twins,1,697,NaN,clock,truck,bw,0697_cl_dnn_bw_truck_40_n03417042_265.png
barlow_twins,1,698,NaN,keyboard,cat,cr,0698_cl_dnn_cr_cat_40_n02124075_8351.png
barlow_twins,1,699,NaN,car,clock,bw,0699_cl_dnn_bw_clock_40_n03196217_4004.png
barlow_twins,1,700,NaN,oven,car,cr,0700_cl_dnn_cr_car_40_n04285008_8093.png
barlow_twins,1,701,NaN,oven,knife,bw,0701_cl_dnn_bw_knife_40_n03041632_131.png
barlow_twins,1,702,NaN,bottle,car,bw,0702_cl_dnn_bw_car_40_n03100240_6479.png
barlow_twins,1,703,NaN,chair,clock,bw,0703_cl_dnn_bw_clock_40_n03196217_5365.png
barlow_twins,1,704,NaN,oven,bear,bw,0704_cl_dnn_bw_bear_40_n02134418_6123.png
barlow_twins,1,705,NaN,bicycle,bear,cr,0705_cl_dnn_cr_bear_40_n02134418_5273.png
barlow_twins,1,706,NaN,oven,bird,cr,0706_cl_dnn_cr_bird_40_n01558993_11456.png
barlow_twins,1,707,NaN,airplane,oven,cr,0707_cl_dnn_cr_oven_40_n04111531_6080.png
barlow_twins,1,708,NaN,oven,knife,bw,0708_cl_dnn_bw_knife_40_n03041632_101553.png
barlow_twins,1,709,NaN,airplane,oven,bw,0709_cl_dnn_bw_oven_40_n04111531_10436.png
barlow_twins,1,710,NaN,car,clock,cr,0710_cl_dnn_cr_clock_40_n02708093_3621.png
barlow_twins,1,711,NaN,clock,knife,cr,0711_cl_dnn_cr_knife_40_n03041632_14801.png
barlow_twins,1,712,NaN,car,dog,cr,0712_cl_dnn_cr_dog_40_n02097130_456.png
barlow_twins,1,713,NaN,airplane,chair,cr,0713_cl_dnn_cr_chair_40_n04429376_21081.png
barlow_twins,1,714,NaN,airplane,bicycle,cr,0714_cl_dnn_cr_bicycle_40_n02835271_2068.png
barlow_twins,1,715,NaN,airplane,chair,cr,0715_cl_dnn_cr_chair_40_n03376595_1773.png
barlow_twins,1,716,NaN,airplane,car,bw,0716_cl_dnn_bw_car_40_n03100240_23849.png
barlow_twins,1,717,NaN,oven,car,bw,0717_cl_dnn_bw_car_40_n04285008_4834.png
barlow_twins,1,718,NaN,bear,knife,cr,0718_cl_dnn_cr_knife_40_n03041632_18859.png
barlow_twins,1,719,NaN,oven,car,bw,0719_cl_dnn_bw_car_40_n03100240_7013.png
barlow_twins,1,720,NaN,airplane,airplane,cr,0720_cl_dnn_cr_airplane_40_n02690373_1732.png
barlow_twins,1,721,NaN,boat,dog,cr,0721_cl_dnn_cr_dog_40_n02100877_1107.png
barlow_twins,1,722,NaN,oven,dog,bw,0722_cl_dnn_bw_dog_40_n02106662_50272.png
barlow_twins,1,723,NaN,bicycle,boat,cr,0723_cl_dnn_cr_boat_40_n03344393_3337.png
barlow_twins,1,724,NaN,keyboard,oven,bw,0724_cl_dnn_bw_oven_40_n04111531_4939.png
barlow_twins,1,725,NaN,airplane,knife,bw,0725_cl_dnn_bw_knife_40_n03041632_37513.png
barlow_twins,1,726,NaN,airplane,chair,cr,0726_cl_dnn_cr_chair_40_n04429376_7089.png
barlow_twins,1,727,NaN,clock,knife,cr,0727_cl_dnn_cr_knife_40_n03041632_32048.png
barlow_twins,1,728,NaN,boat,boat,cr,0728_cl_dnn_cr_boat_40_n02951358_5355.png
barlow_twins,1,729,NaN,keyboard,bird,cr,0729_cl_dnn_cr_bird_40_n01797886_3876.png
barlow_twins,1,730,NaN,oven,boat,bw,0730_cl_dnn_bw_boat_40_n04273569_517.png
barlow_twins,1,731,NaN,boat,chair,cr,0731_cl_dnn_cr_chair_40_n04099969_17727.png
barlow_twins,1,732,NaN,clock,keyboard,cr,0732_cl_dnn_cr_keyboard_40_n03085013_6644.png
barlow_twins,1,733,NaN,clock,knife,bw,0733_cl_dnn_bw_knife_40_n03041632_32177.png
barlow_twins,1,734,NaN,airplane,chair,bw,0734_cl_dnn_bw_chair_40_n03376595_2420.png
barlow_twins,1,735,NaN,elephant,clock,bw,0735_cl_dnn_bw_clock_40_n02708093_1430.png
barlow_twins,1,736,NaN,airplane,knife,cr,0736_cl_dnn_cr_knife_40_n03041632_90125.png
barlow_twins,1,737,NaN,clock,truck,cr,0737_cl_dnn_cr_truck_40_n04467665_67327.png
barlow_twins,1,738,NaN,car,dog,bw,0738_cl_dnn_bw_dog_40_n02101556_8410.png
barlow_twins,1,739,NaN,oven,boat,bw,0739_cl_dnn_bw_boat_40_n03662601_6340.png
barlow_twins,1,740,NaN,car,bird,cr,0740_cl_dnn_cr_bird_40_n01860187_2825.png
barlow_twins,1,741,NaN,airplane,keyboard,cr,0741_cl_dnn_cr_keyboard_40_n04505470_8575.png
barlow_twins,1,742,NaN,bicycle,boat,bw,0742_cl_dnn_bw_boat_40_n03344393_3443.png
barlow_twins,1,743,NaN,clock,boat,bw,0743_cl_dnn_bw_boat_40_n03344393_5066.png
barlow_twins,1,744,NaN,oven,elephant,bw,0744_cl_dnn_bw_elephant_40_n02504458_6995.png
barlow_twins,1,745,NaN,airplane,cat,bw,0745_cl_dnn_bw_cat_40_n02123394_5708.png
barlow_twins,1,746,NaN,knife,truck,bw,0746_cl_dnn_bw_truck_40_n04467665_68331.png
barlow_twins,1,747,NaN,airplane,keyboard,cr,0747_cl_dnn_cr_keyboard_40_n04505470_2740.png
barlow_twins,1,748,NaN,car,oven,bw,0748_cl_dnn_bw_oven_40_n04111531_12103.png
barlow_twins,1,749,NaN,airplane,boat,bw,0749_cl_dnn_bw_boat_40_n02951358_30020.png
barlow_twins,1,750,NaN,clock,bottle,bw,0750_cl_dnn_bw_bottle_40_n03983396_16300.png
barlow_twins,1,751,NaN,bicycle,chair,bw,0751_cl_dnn_bw_chair_40_n02791124_3926.png
barlow_twins,1,752,NaN,car,knife,bw,0752_cl_dnn_bw_knife_40_n03041632_5102.png
barlow_twins,1,753,NaN,airplane,keyboard,bw,0753_cl_dnn_bw_keyboard_40_n03085013_20161.png
barlow_twins,1,754,NaN,airplane,bottle,bw,0754_cl_dnn_bw_bottle_40_n04591713_7959.png
barlow_twins,1,755,NaN,oven,car,cr,0755_cl_dnn_cr_car_40_n04285008_10901.png
barlow_twins,1,756,NaN,clock,bear,cr,0756_cl_dnn_cr_bear_40_n02134084_4490.png
barlow_twins,1,757,NaN,bicycle,truck,cr,0757_cl_dnn_cr_truck_40_n03417042_8046.png
barlow_twins,1,758,NaN,clock,bicycle,bw,0758_cl_dnn_bw_bicycle_40_n03792782_13140.png
barlow_twins,1,759,NaN,bicycle,boat,bw,0759_cl_dnn_bw_boat_40_n03662601_8283.png
barlow_twins,1,760,NaN,oven,elephant,bw,0760_cl_dnn_bw_elephant_40_n02504458_6930.png
barlow_twins,1,761,NaN,oven,car,cr,0761_cl_dnn_cr_car_40_n03100240_3286.png
barlow_twins,1,762,NaN,oven,bear,bw,0762_cl_dnn_bw_bear_40_n02132136_7647.png
barlow_twins,1,763,NaN,airplane,bottle,bw,0763_cl_dnn_bw_bottle_40_n03983396_20329.png
barlow_twins,1,764,NaN,airplane,dog,cr,0764_cl_dnn_cr_dog_40_n02097209_1491.png
barlow_twins,1,765,NaN,car,bicycle,bw,0765_cl_dnn_bw_bicycle_40_n02835271_10813.png
barlow_twins,1,766,NaN,bicycle,bird,cr,0766_cl_dnn_cr_bird_40_n01833805_4859.png
barlow_twins,1,767,NaN,airplane,knife,cr,0767_cl_dnn_cr_knife_40_n03041632_30573.png
barlow_twins,1,768,NaN,boat,bottle,cr,0768_cl_dnn_cr_bottle_40_n04560804_15293.png
barlow_twins,1,769,NaN,knife,cat,cr,0769_cl_dnn_cr_cat_40_n02123045_4089.png
barlow_twins,1,770,NaN,airplane,knife,cr,0770_cl_dnn_cr_knife_40_n03041632_32350.png
barlow_twins,1,771,NaN,airplane,oven,cr,0771_cl_dnn_cr_oven_40_n04111531_11499.png
barlow_twins,1,772,NaN,oven,elephant,bw,0772_cl_dnn_bw_elephant_40_n02504013_9401.png
barlow_twins,1,773,NaN,car,elephant,cr,0773_cl_dnn_cr_elephant_40_n02504013_6167.png
barlow_twins,1,774,NaN,knife,truck,cr,0774_cl_dnn_cr_truck_40_n04467665_4287.png
barlow_twins,1,775,NaN,clock,car,cr,0775_cl_dnn_cr_car_40_n04285008_953.png
barlow_twins,1,776,NaN,clock,bird,bw,0776_cl_dnn_bw_bird_40_n01537544_2875.png
barlow_twins,1,777,NaN,car,bicycle,cr,0777_cl_dnn_cr_bicycle_40_n02835271_14383.png
barlow_twins,1,778,NaN,bicycle,cat,cr,0778_cl_dnn_cr_cat_40_n02125311_28254.png
barlow_twins,1,779,NaN,clock,keyboard,bw,0779_cl_dnn_bw_keyboard_40_n04505470_3959.png
barlow_twins,1,780,NaN,airplane,clock,cr,0780_cl_dnn_cr_clock_40_n03196217_10578.png
barlow_twins,1,781,NaN,clock,chair,bw,0781_cl_dnn_bw_chair_40_n04429376_27560.png
barlow_twins,1,782,NaN,airplane,oven,bw,0782_cl_dnn_bw_oven_40_n04111531_9322.png
barlow_twins,1,783,NaN,knife,airplane,bw,0783_cl_dnn_bw_airplane_40_n02690373_15966.png
barlow_twins,1,784,NaN,airplane,car,cr,0784_cl_dnn_cr_car_40_n02814533_27983.png
barlow_twins,1,785,NaN,airplane,knife,bw,0785_cl_dnn_bw_knife_40_n03041632_2630.png
barlow_twins,1,786,NaN,clock,bottle,bw,0786_cl_dnn_bw_bottle_40_n03983396_5611.png
barlow_twins,1,787,NaN,boat,keyboard,bw,0787_cl_dnn_bw_keyboard_40_n03085013_6561.png
barlow_twins,1,788,NaN,oven,elephant,bw,0788_cl_dnn_bw_elephant_40_n02504458_10344.png
barlow_twins,1,789,NaN,bicycle,bottle,cr,0789_cl_dnn_cr_bottle_40_n04557648_4302.png
barlow_twins,1,790,NaN,oven,bird,bw,0790_cl_dnn_bw_bird_40_n02002724_1459.png
barlow_twins,1,791,NaN,airplane,keyboard,bw,0791_cl_dnn_bw_keyboard_40_n03085013_23800.png
barlow_twins,1,792,NaN,clock,boat,cr,0792_cl_dnn_cr_boat_40_n02951358_30622.png
barlow_twins,1,793,NaN,clock,boat,bw,0793_cl_dnn_bw_boat_40_n02951358_4128.png
barlow_twins,1,794,NaN,knife,clock,bw,0794_cl_dnn_bw_clock_40_n03196217_2414.png
barlow_twins,1,795,NaN,bottle,bicycle,bw,0795_cl_dnn_bw_bicycle_40_n03792782_3705.png
barlow_twins,1,796,NaN,elephant,cat,bw,0796_cl_dnn_bw_cat_40_n02123597_9939.png
barlow_twins,1,797,NaN,car,oven,bw,0797_cl_dnn_bw_oven_40_n04111531_8263.png
barlow_twins,1,798,NaN,airplane,truck,bw,0798_cl_dnn_bw_truck_40_n03417042_5229.png
barlow_twins,1,799,NaN,car,bottle,cr,0799_cl_dnn_cr_bottle_40_n04560804_545.png
barlow_twins,1,800,NaN,car,knife,bw,0800_cl_dnn_bw_knife_40_n03041632_85488.png
barlow_twins,1,801,NaN,airplane,oven,cr,0801_cl_dnn_cr_oven_40_n04111531_18430.png
barlow_twins,1,802,NaN,car,boat,cr,0802_cl_dnn_cr_boat_40_n02951358_34003.png
barlow_twins,1,803,NaN,bicycle,dog,cr,0803_cl_dnn_cr_dog_40_n02110958_2175.png
barlow_twins,1,804,NaN,bear,cat,bw,0804_cl_dnn_bw_cat_40_n02123597_5298.png
barlow_twins,1,805,NaN,car,oven,cr,0805_cl_dnn_cr_oven_40_n04111531_20914.png
barlow_twins,1,806,NaN,airplane,car,cr,0806_cl_dnn_cr_car_40_n02814533_76817.png
barlow_twins,1,807,NaN,airplane,airplane,cr,0807_cl_dnn_cr_airplane_40_n02690373_8650.png
barlow_twins,1,808,NaN,car,oven,bw,0808_cl_dnn_bw_oven_40_n04111531_3575.png
barlow_twins,1,809,NaN,airplane,knife,cr,0809_cl_dnn_cr_knife_40_n03041632_49570.png
barlow_twins,1,810,NaN,clock,bear,cr,0810_cl_dnn_cr_bear_40_n02133161_3988.png
barlow_twins,1,811,NaN,keyboard,keyboard,bw,0811_cl_dnn_bw_keyboard_40_n04505470_1903.png
barlow_twins,1,812,NaN,knife,chair,cr,0812_cl_dnn_cr_chair_40_n04099969_13948.png
barlow_twins,1,813,NaN,clock,car,bw,0813_cl_dnn_bw_car_40_n04285008_2750.png
barlow_twins,1,814,NaN,car,knife,bw,0814_cl_dnn_bw_knife_40_n03041632_11186.png
barlow_twins,1,815,NaN,bicycle,cat,bw,0815_cl_dnn_bw_cat_40_n02125311_46330.png
barlow_twins,1,816,NaN,oven,clock,cr,0816_cl_dnn_cr_clock_40_n04548280_4637.png
barlow_twins,1,817,NaN,airplane,airplane,cr,0817_cl_dnn_cr_airplane_40_n02690373_9086.png
barlow_twins,1,818,NaN,oven,knife,bw,0818_cl_dnn_bw_knife_40_n03041632_16172.png
barlow_twins,1,819,NaN,boat,elephant,cr,0819_cl_dnn_cr_elephant_40_n02504458_4554.png
barlow_twins,1,820,NaN,clock,bear,bw,0820_cl_dnn_bw_bear_40_n02132136_2463.png
barlow_twins,1,821,NaN,oven,chair,bw,0821_cl_dnn_bw_chair_40_n02791124_2813.png
barlow_twins,1,822,NaN,car,boat,cr,0822_cl_dnn_cr_boat_40_n03662601_8216.png
barlow_twins,1,823,NaN,knife,airplane,bw,0823_cl_dnn_bw_airplane_40_n02690373_7748.png
barlow_twins,1,824,NaN,clock,elephant,bw,0824_cl_dnn_bw_elephant_40_n02504013_2770.png
barlow_twins,1,825,NaN,airplane,dog,bw,0825_cl_dnn_bw_dog_40_n02102973_5217.png
barlow_twins,1,826,NaN,boat,keyboard,bw,0826_cl_dnn_bw_keyboard_40_n04505470_4549.png
barlow_twins,1,827,NaN,chair,keyboard,bw,0827_cl_dnn_bw_keyboard_40_n04505470_3065.png
barlow_twins,1,828,NaN,oven,car,bw,0828_cl_dnn_bw_car_40_n02814533_85368.png
barlow_twins,1,829,NaN,car,cat,bw,0829_cl_dnn_bw_cat_40_n02125311_5300.png
barlow_twins,1,830,NaN,bicycle,car,bw,0830_cl_dnn_bw_car_40_n02814533_45935.png
barlow_twins,1,831,NaN,airplane,keyboard,bw,0831_cl_dnn_bw_keyboard_40_n03085013_7613.png
barlow_twins,1,832,NaN,bicycle,clock,bw,0832_cl_dnn_bw_clock_40_n02708093_394.png
barlow_twins,1,833,NaN,clock,boat,bw,0833_cl_dnn_bw_boat_40_n02951358_34662.png
barlow_twins,1,834,NaN,clock,knife,bw,0834_cl_dnn_bw_knife_40_n03041632_11327.png
barlow_twins,1,835,NaN,airplane,dog,bw,0835_cl_dnn_bw_dog_40_n02091032_1035.png
barlow_twins,1,836,NaN,clock,car,cr,0836_cl_dnn_cr_car_40_n02814533_6233.png
barlow_twins,1,837,NaN,clock,bicycle,bw,0837_cl_dnn_bw_bicycle_40_n02835271_5602.png
barlow_twins,1,838,NaN,clock,boat,bw,0838_cl_dnn_bw_boat_40_n02951358_32698.png
barlow_twins,1,839,NaN,car,knife,cr,0839_cl_dnn_cr_knife_40_n03041632_44212.png
barlow_twins,1,840,NaN,clock,elephant,bw,0840_cl_dnn_bw_elephant_40_n02504013_1560.png
barlow_twins,1,841,NaN,airplane,knife,bw,0841_cl_dnn_bw_knife_40_n03041632_4808.png
barlow_twins,1,842,NaN,chair,chair,cr,0842_cl_dnn_cr_chair_40_n02791124_1239.png
barlow_twins,1,843,NaN,clock,bicycle,bw,0843_cl_dnn_bw_bicycle_40_n02835271_11332.png
barlow_twins,1,844,NaN,clock,elephant,bw,0844_cl_dnn_bw_elephant_40_n02504458_6130.png
barlow_twins,1,845,NaN,airplane,keyboard,bw,0845_cl_dnn_bw_keyboard_40_n04505470_713.png
barlow_twins,1,846,NaN,clock,bottle,cr,0846_cl_dnn_cr_bottle_40_n03937543_2469.png
barlow_twins,1,847,NaN,clock,boat,cr,0847_cl_dnn_cr_boat_40_n03344393_9732.png
barlow_twins,1,848,NaN,knife,clock,cr,0848_cl_dnn_cr_clock_40_n02708093_2394.png
barlow_twins,1,849,NaN,bicycle,knife,cr,0849_cl_dnn_cr_knife_40_n03041632_7173.png
barlow_twins,1,850,NaN,knife,airplane,bw,0850_cl_dnn_bw_airplane_40_n02690373_18936.png
barlow_twins,1,851,NaN,airplane,oven,bw,0851_cl_dnn_bw_oven_40_n04111531_978.png
barlow_twins,1,852,NaN,keyboard,bicycle,bw,0852_cl_dnn_bw_bicycle_40_n03792782_710.png
barlow_twins,1,853,NaN,car,dog,cr,0853_cl_dnn_cr_dog_40_n02097298_4393.png
barlow_twins,1,854,NaN,knife,airplane,bw,0854_cl_dnn_bw_airplane_40_n02690373_4107.png
barlow_twins,1,855,NaN,airplane,keyboard,cr,0855_cl_dnn_cr_keyboard_40_n04505470_4385.png
barlow_twins,1,856,NaN,airplane,bottle,bw,0856_cl_dnn_bw_bottle_40_n03983396_8684.png
barlow_twins,1,857,NaN,clock,bird,cr,0857_cl_dnn_cr_bird_40_n02056570_6364.png
barlow_twins,1,858,NaN,bicycle,bear,bw,0858_cl_dnn_bw_bear_40_n02133161_13267.png
barlow_twins,1,859,NaN,keyboard,boat,cr,0859_cl_dnn_cr_boat_40_n03344393_2408.png
barlow_twins,1,860,NaN,clock,car,cr,0860_cl_dnn_cr_car_40_n03100240_12146.png
barlow_twins,1,861,NaN,clock,bird,bw,0861_cl_dnn_bw_bird_40_n01534433_8318.png
barlow_twins,1,862,NaN,clock,cat,cr,0862_cl_dnn_cr_cat_40_n02124075_9206.png
barlow_twins,1,863,NaN,oven,chair,bw,0863_cl_dnn_bw_chair_40_n04099969_22572.png
barlow_twins,1,864,NaN,airplane,car,bw,0864_cl_dnn_bw_car_40_n04285008_658.png
barlow_twins,1,865,NaN,oven,knife,cr,0865_cl_dnn_cr_knife_40_n03041632_51256.png
barlow_twins,1,866,NaN,boat,dog,bw,0866_cl_dnn_bw_dog_40_n02093256_3792.png
barlow_twins,1,867,NaN,knife,car,cr,0867_cl_dnn_cr_car_40_n03100240_5121.png
barlow_twins,1,868,NaN,airplane,chair,bw,0868_cl_dnn_bw_chair_40_n03376595_1766.png
barlow_twins,1,869,NaN,clock,elephant,cr,0869_cl_dnn_cr_elephant_40_n02504013_4038.png
barlow_twins,1,870,NaN,clock,elephant,cr,0870_cl_dnn_cr_elephant_40_n02504458_169.png
barlow_twins,1,871,NaN,knife,airplane,cr,0871_cl_dnn_cr_airplane_40_n02690373_5342.png
barlow_twins,1,872,NaN,clock,bicycle,cr,0872_cl_dnn_cr_bicycle_40_n02835271_13023.png
barlow_twins,1,873,NaN,clock,bird,cr,0873_cl_dnn_cr_bird_40_n01797886_6946.png
barlow_twins,1,874,NaN,knife,airplane,bw,0874_cl_dnn_bw_airplane_40_n02690373_9619.png
barlow_twins,1,875,NaN,airplane,boat,cr,0875_cl_dnn_cr_boat_40_n03344393_5017.png
barlow_twins,1,876,NaN,boat,elephant,cr,0876_cl_dnn_cr_elephant_40_n02504458_694.png
barlow_twins,1,877,NaN,bicycle,bear,bw,0877_cl_dnn_bw_bear_40_n02134084_21413.png
barlow_twins,1,878,NaN,airplane,airplane,cr,0878_cl_dnn_cr_airplane_40_n02690373_5142.png
barlow_twins,1,879,NaN,knife,airplane,bw,0879_cl_dnn_bw_airplane_40_n02690373_4233.png
barlow_twins,1,880,NaN,clock,bird,bw,0880_cl_dnn_bw_bird_40_n01558993_6287.png
barlow_twins,1,881,NaN,clock,bicycle,cr,0881_cl_dnn_cr_bicycle_40_n03792782_18343.png
barlow_twins,1,882,NaN,clock,airplane,cr,0882_cl_dnn_cr_airplane_40_n02690373_3859.png
barlow_twins,1,883,NaN,bicycle,boat,cr,0883_cl_dnn_cr_boat_40_n04273569_17983.png
barlow_twins,1,884,NaN,airplane,keyboard,bw,0884_cl_dnn_bw_keyboard_40_n04505470_4856.png
barlow_twins,1,885,NaN,clock,bottle,bw,0885_cl_dnn_bw_bottle_40_n02823428_1678.png
barlow_twins,1,886,NaN,keyboard,bird,cr,0886_cl_dnn_cr_bird_40_n02025239_6030.png
barlow_twins,1,887,NaN,car,knife,cr,0887_cl_dnn_cr_knife_40_n03041632_28201.png
barlow_twins,1,888,NaN,clock,elephant,cr,0888_cl_dnn_cr_elephant_40_n02504458_481.png
barlow_twins,1,889,NaN,airplane,bicycle,bw,0889_cl_dnn_bw_bicycle_40_n03792782_4102.png
barlow_twins,1,890,NaN,airplane,truck,bw,0890_cl_dnn_bw_truck_40_n03417042_22513.png
barlow_twins,1,891,NaN,bicycle,bird,bw,0891_cl_dnn_bw_bird_40_n02006656_6733.png
barlow_twins,1,892,NaN,oven,chair,cr,0892_cl_dnn_cr_chair_40_n03376595_9813.png
barlow_twins,1,893,NaN,oven,elephant,bw,0893_cl_dnn_bw_elephant_40_n02504013_53.png
barlow_twins,1,894,NaN,boat,dog,bw,0894_cl_dnn_bw_dog_40_n02092002_10760.png
barlow_twins,1,895,NaN,clock,dog,cr,0895_cl_dnn_cr_dog_40_n02106662_9600.png
barlow_twins,1,896,NaN,car,bottle,bw,0896_cl_dnn_bw_bottle_40_n04557648_2523.png
barlow_twins,1,897,NaN,airplane,knife,bw,0897_cl_dnn_bw_knife_40_n03041632_27575.png
barlow_twins,1,898,NaN,clock,airplane,bw,0898_cl_dnn_bw_airplane_40_n02690373_2514.png
barlow_twins,1,899,NaN,clock,bicycle,bw,0899_cl_dnn_bw_bicycle_40_n03792782_818.png
barlow_twins,1,900,NaN,car,clock,cr,0900_cl_dnn_cr_clock_40_n02708093_57.png
barlow_twins,1,901,NaN,clock,oven,bw,0901_cl_dnn_bw_oven_40_n04111531_4407.png
barlow_twins,1,902,NaN,airplane,bicycle,bw,0902_cl_dnn_bw_bicycle_40_n03792782_67333.png
barlow_twins,1,903,NaN,clock,bear,cr,0903_cl_dnn_cr_bear_40_n02134084_13339.png
barlow_twins,1,904,NaN,clock,bear,cr,0904_cl_dnn_cr_bear_40_n02133161_574.png
barlow_twins,1,905,NaN,airplane,bottle,cr,0905_cl_dnn_cr_bottle_40_n04557648_2122.png
barlow_twins,1,906,NaN,clock,elephant,bw,0906_cl_dnn_bw_elephant_40_n02504458_4570.png
barlow_twins,1,907,NaN,bicycle,knife,bw,0907_cl_dnn_bw_knife_40_n03041632_32337.png
barlow_twins,1,908,NaN,knife,truck,cr,0908_cl_dnn_cr_truck_40_n04467665_11299.png
barlow_twins,1,909,NaN,knife,chair,cr,0909_cl_dnn_cr_chair_40_n03376595_1135.png
barlow_twins,1,910,NaN,knife,truck,bw,0910_cl_dnn_bw_truck_40_n03796401_713.png
barlow_twins,1,911,NaN,bicycle,keyboard,cr,0911_cl_dnn_cr_keyboard_40_n03085013_20398.png
barlow_twins,1,912,NaN,clock,bottle,cr,0912_cl_dnn_cr_bottle_40_n03983396_2053.png
barlow_twins,1,913,NaN,knife,cat,bw,0913_cl_dnn_bw_cat_40_n02123159_6041.png
barlow_twins,1,914,NaN,airplane,dog,bw,0914_cl_dnn_bw_dog_40_n02090721_4088.png
barlow_twins,1,915,NaN,bicycle,bear,cr,0915_cl_dnn_cr_bear_40_n02134084_868.png
barlow_twins,1,916,NaN,airplane,chair,bw,0916_cl_dnn_bw_chair_40_n04429376_9121.png
barlow_twins,1,917,NaN,chair,bottle,cr,0917_cl_dnn_cr_bottle_40_n04560804_10184.png
barlow_twins,1,918,NaN,bicycle,knife,cr,0918_cl_dnn_cr_knife_40_n03041632_13478.png
barlow_twins,1,919,NaN,clock,bicycle,cr,0919_cl_dnn_cr_bicycle_40_n02835271_2753.png
barlow_twins,1,920,NaN,airplane,airplane,bw,0920_cl_dnn_bw_airplane_40_n02690373_2750.png
barlow_twins,1,921,NaN,knife,clock,bw,0921_cl_dnn_bw_clock_40_n03196217_5165.png
barlow_twins,1,922,NaN,bicycle,bottle,cr,0922_cl_dnn_cr_bottle_40_n03937543_1231.png
barlow_twins,1,923,NaN,boat,elephant,bw,0923_cl_dnn_bw_elephant_40_n02504458_5972.png
barlow_twins,1,924,NaN,airplane,bottle,cr,0924_cl_dnn_cr_bottle_40_n03937543_5322.png
barlow_twins,1,925,NaN,knife,truck,cr,0925_cl_dnn_cr_truck_40_n04467665_9123.png
barlow_twins,1,926,NaN,car,oven,cr,0926_cl_dnn_cr_oven_40_n04111531_8687.png
barlow_twins,1,927,NaN,car,bicycle,cr,0927_cl_dnn_cr_bicycle_40_n03792782_85.png
barlow_twins,1,928,NaN,knife,truck,cr,0928_cl_dnn_cr_truck_40_n04467665_55848.png
barlow_twins,1,929,NaN,keyboard,chair,bw,0929_cl_dnn_bw_chair_40_n04099969_8934.png
barlow_twins,1,930,NaN,knife,airplane,cr,0930_cl_dnn_cr_airplane_40_n02690373_2293.png
barlow_twins,1,931,NaN,bicycle,boat,cr,0931_cl_dnn_cr_boat_40_n03344393_8625.png
barlow_twins,1,932,NaN,bicycle,cat,cr,0932_cl_dnn_cr_cat_40_n02123394_686.png
barlow_twins,1,933,NaN,oven,bear,bw,0933_cl_dnn_bw_bear_40_n02132136_22313.png
barlow_twins,1,934,NaN,bicycle,bottle,bw,0934_cl_dnn_bw_bottle_40_n04560804_10989.png
barlow_twins,1,935,NaN,airplane,oven,bw,0935_cl_dnn_bw_oven_40_n04111531_11868.png
barlow_twins,1,936,NaN,airplane,oven,bw,0936_cl_dnn_bw_oven_40_n04111531_4012.png
barlow_twins,1,937,NaN,knife,bicycle,bw,0937_cl_dnn_bw_bicycle_40_n02835271_8529.png
barlow_twins,1,938,NaN,airplane,keyboard,cr,0938_cl_dnn_cr_keyboard_40_n04505470_4906.png
barlow_twins,1,939,NaN,clock,airplane,cr,0939_cl_dnn_cr_airplane_40_n02690373_7387.png
barlow_twins,1,940,NaN,oven,car,cr,0940_cl_dnn_cr_car_40_n04285008_901.png
barlow_twins,1,941,NaN,airplane,chair,bw,0941_cl_dnn_bw_chair_40_n03376595_8140.png
barlow_twins,1,942,NaN,oven,elephant,bw,0942_cl_dnn_bw_elephant_40_n02504458_7133.png
barlow_twins,1,943,NaN,chair,bird,cr,0943_cl_dnn_cr_bird_40_n01860187_1258.png
barlow_twins,1,944,NaN,airplane,dog,cr,0944_cl_dnn_cr_dog_40_n02097658_16.png
barlow_twins,1,945,NaN,car,truck,bw,0945_cl_dnn_bw_truck_40_n03417042_16871.png
barlow_twins,1,946,NaN,airplane,keyboard,bw,0946_cl_dnn_bw_keyboard_40_n04505470_3957.png
barlow_twins,1,947,NaN,airplane,chair,cr,0947_cl_dnn_cr_chair_40_n04429376_16081.png
barlow_twins,1,948,NaN,airplane,car,bw,0948_cl_dnn_bw_car_40_n04285008_4749.png
barlow_twins,1,949,NaN,airplane,airplane,bw,0949_cl_dnn_bw_airplane_40_n02690373_4727.png
barlow_twins,1,950,NaN,airplane,knife,bw,0950_cl_dnn_bw_knife_40_n03041632_4214.png
barlow_twins,1,951,NaN,chair,bird,bw,0951_cl_dnn_bw_bird_40_n02027492_9786.png
barlow_twins,1,952,NaN,knife,airplane,bw,0952_cl_dnn_bw_airplane_40_n02690373_4269.png
barlow_twins,1,953,NaN,bicycle,bear,bw,0953_cl_dnn_bw_bear_40_n02132136_1644.png
barlow_twins,1,954,NaN,oven,bird,bw,0954_cl_dnn_bw_bird_40_n02025239_7746.png
barlow_twins,1,955,NaN,bicycle,clock,bw,0955_cl_dnn_bw_clock_40_n04548280_21263.png
barlow_twins,1,956,NaN,keyboard,dog,cr,0956_cl_dnn_cr_dog_40_n02099849_8726.png
barlow_twins,1,957,NaN,clock,bird,bw,0957_cl_dnn_bw_bird_40_n01532829_15048.png
barlow_twins,1,958,NaN,bicycle,bear,cr,0958_cl_dnn_cr_bear_40_n02134084_16163.png
barlow_twins,1,959,NaN,keyboard,bicycle,cr,0959_cl_dnn_cr_bicycle_40_n02835271_4434.png
barlow_twins,1,960,NaN,airplane,keyboard,cr,0960_cl_dnn_cr_keyboard_40_n03085013_1797.png
barlow_twins,1,961,NaN,airplane,knife,cr,0961_cl_dnn_cr_knife_40_n03041632_992.png
barlow_twins,1,962,NaN,bicycle,dog,cr,0962_cl_dnn_cr_dog_40_n02108551_7534.png
barlow_twins,1,963,NaN,clock,bicycle,bw,0963_cl_dnn_bw_bicycle_40_n03792782_9412.png
barlow_twins,1,964,NaN,clock,car,cr,0964_cl_dnn_cr_car_40_n02814533_11051.png
barlow_twins,1,965,NaN,car,oven,bw,0965_cl_dnn_bw_oven_40_n04111531_8963.png
barlow_twins,1,966,NaN,bicycle,clock,cr,0966_cl_dnn_cr_clock_40_n02708093_6610.png
barlow_twins,1,967,NaN,airplane,dog,bw,0967_cl_dnn_bw_dog_40_n02095570_513.png
barlow_twins,1,968,NaN,airplane,bottle,bw,0968_cl_dnn_bw_bottle_40_n04557648_9898.png
barlow_twins,1,969,NaN,bicycle,cat,bw,0969_cl_dnn_bw_cat_40_n02123394_4877.png
barlow_twins,1,970,NaN,knife,oven,cr,0970_cl_dnn_cr_oven_40_n04111531_6412.png
barlow_twins,1,971,NaN,airplane,oven,bw,0971_cl_dnn_bw_oven_40_n04111531_887.png
barlow_twins,1,972,NaN,airplane,oven,bw,0972_cl_dnn_bw_oven_40_n04111531_19000.png
barlow_twins,1,973,NaN,knife,clock,cr,0973_cl_dnn_cr_clock_40_n03196217_4821.png
barlow_twins,1,974,NaN,airplane,cat,bw,0974_cl_dnn_bw_cat_40_n02123159_7638.png
barlow_twins,1,975,NaN,car,bottle,cr,0975_cl_dnn_cr_bottle_40_n03937543_1486.png
barlow_twins,1,976,NaN,car,keyboard,bw,0976_cl_dnn_bw_keyboard_40_n03085013_23648.png
barlow_twins,1,977,NaN,airplane,bird,cr,0977_cl_dnn_cr_bird_40_n01819313_6430.png
barlow_twins,1,978,NaN,airplane,keyboard,bw,0978_cl_dnn_bw_keyboard_40_n03085013_20843.png
barlow_twins,1,979,NaN,knife,chair,cr,0979_cl_dnn_cr_chair_40_n04429376_9432.png
barlow_twins,1,980,NaN,airplane,bicycle,bw,0980_cl_dnn_bw_bicycle_40_n03792782_5426.png
barlow_twins,1,981,NaN,chair,bottle,bw,0981_cl_dnn_bw_bottle_40_n02823428_10814.png
barlow_twins,1,982,NaN,bicycle,dog,cr,0982_cl_dnn_cr_dog_40_n02109525_12602.png
barlow_twins,1,983,NaN,car,boat,bw,0983_cl_dnn_bw_boat_40_n02951358_863.png
barlow_twins,1,984,NaN,clock,bicycle,cr,0984_cl_dnn_cr_bicycle_40_n02835271_6563.png
barlow_twins,1,985,NaN,airplane,oven,cr,0985_cl_dnn_cr_oven_40_n04111531_9455.png
barlow_twins,1,986,NaN,oven,cat,bw,0986_cl_dnn_bw_cat_40_n02123394_4542.png
barlow_twins,1,987,NaN,clock,bicycle,cr,0987_cl_dnn_cr_bicycle_40_n03792782_3342.png
barlow_twins,1,988,NaN,oven,elephant,bw,0988_cl_dnn_bw_elephant_40_n02504458_2471.png
barlow_twins,1,989,NaN,oven,bear,bw,0989_cl_dnn_bw_bear_40_n02132136_1626.png
barlow_twins,1,990,NaN,clock,car,bw,0990_cl_dnn_bw_car_40_n04285008_14334.png
barlow_twins,1,991,NaN,car,cat,bw,0991_cl_dnn_bw_cat_40_n02123159_4353.png
barlow_twins,1,992,NaN,clock,boat,bw,0992_cl_dnn_bw_boat_40_n03662601_8709.png
barlow_twins,1,993,NaN,bicycle,clock,cr,0993_cl_dnn_cr_clock_40_n02708093_3595.png
barlow_twins,1,994,NaN,clock,elephant,cr,0994_cl_dnn_cr_elephant_40_n02504458_3776.png
barlow_twins,1,995,NaN,elephant,elephant,cr,0995_cl_dnn_cr_elephant_40_n02504013_7001.png
barlow_twins,1,996,NaN,boat,bear,cr,0996_cl_dnn_cr_bear_40_n02133161_739.png
barlow_twins,1,997,NaN,car,elephant,cr,0997_cl_dnn_cr_elephant_40_n02504013_8497.png
barlow_twins,1,998,NaN,clock,bear,cr,0998_cl_dnn_cr_bear_40_n02134084_5822.png
barlow_twins,1,999,NaN,knife,airplane,bw,0999_cl_dnn_bw_airplane_40_n02690373_3054.png
barlow_twins,1,1000,NaN,clock,bottle,cr,1000_cl_dnn_cr_bottle_40_n04591713_2899.png
barlow_twins,1,1001,NaN,oven,elephant,cr,1001_cl_dnn_cr_elephant_40_n02504013_5014.png
barlow_twins,1,1002,NaN,clock,keyboard,bw,1002_cl_dnn_bw_keyboard_40_n03085013_23789.png
barlow_twins,1,1003,NaN,knife,clock,cr,1003_cl_dnn_cr_clock_40_n02708093_6696.png
barlow_twins,1,1004,NaN,clock,chair,cr,1004_cl_dnn_cr_chair_40_n03376595_6570.png
barlow_twins,1,1005,NaN,clock,airplane,cr,1005_cl_dnn_cr_airplane_40_n02690373_1235.png
barlow_twins,1,1006,NaN,car,bear,bw,1006_cl_dnn_bw_bear_40_n02134418_496.png
barlow_twins,1,1007,NaN,clock,elephant,bw,1007_cl_dnn_bw_elephant_40_n02504458_6336.png
barlow_twins,1,1008,NaN,boat,chair,cr,1008_cl_dnn_cr_chair_40_n04099969_7998.png
barlow_twins,1,1009,NaN,clock,bottle,cr,1009_cl_dnn_cr_bottle_40_n04591713_2879.png
barlow_twins,1,1010,NaN,knife,airplane,cr,1010_cl_dnn_cr_airplane_40_n02690373_4578.png
barlow_twins,1,1011,NaN,airplane,knife,cr,1011_cl_dnn_cr_knife_40_n03041632_9759.png
barlow_twins,1,1012,NaN,oven,dog,cr,1012_cl_dnn_cr_dog_40_n02093991_434.png
barlow_twins,1,1013,NaN,clock,chair,bw,1013_cl_dnn_bw_chair_40_n02791124_14.png
barlow_twins,1,1014,NaN,car,oven,cr,1014_cl_dnn_cr_oven_40_n04111531_12080.png
barlow_twins,1,1015,NaN,airplane,bird,cr,1015_cl_dnn_cr_bird_40_n02013706_9024.png
barlow_twins,1,1016,NaN,boat,elephant,bw,1016_cl_dnn_bw_elephant_40_n02504013_4071.png
barlow_twins,1,1017,NaN,knife,truck,bw,1017_cl_dnn_bw_truck_40_n04467665_30683.png
barlow_twins,1,1018,NaN,car,oven,cr,1018_cl_dnn_cr_oven_40_n04111531_1220.png
barlow_twins,1,1019,NaN,clock,bicycle,cr,1019_cl_dnn_cr_bicycle_40_n03792782_10281.png
barlow_twins,1,1020,NaN,bicycle,dog,cr,1020_cl_dnn_cr_dog_40_n02113624_9189.png
barlow_twins,1,1021,NaN,airplane,truck,bw,1021_cl_dnn_bw_truck_40_n04467665_22573.png
barlow_twins,1,1022,NaN,airplane,keyboard,bw,1022_cl_dnn_bw_keyboard_40_n03085013_21956.png
barlow_twins,1,1023,NaN,keyboard,chair,cr,1023_cl_dnn_cr_chair_40_n03376595_3169.png
barlow_twins,1,1024,NaN,car,truck,cr,1024_cl_dnn_cr_truck_40_n03417042_10283.png
barlow_twins,1,1025,NaN,airplane,bottle,bw,1025_cl_dnn_bw_bottle_40_n03983396_3173.png
barlow_twins,1,1026,NaN,bicycle,cat,cr,1026_cl_dnn_cr_cat_40_n02125311_4261.png
barlow_twins,1,1027,NaN,keyboard,chair,bw,1027_cl_dnn_bw_chair_40_n04099969_24495.png
barlow_twins,1,1028,NaN,clock,clock,bw,1028_cl_dnn_bw_clock_40_n02708093_3745.png
barlow_twins,1,1029,NaN,oven,bird,cr,1029_cl_dnn_cr_bird_40_n02013706_2849.png
barlow_twins,1,1030,NaN,clock,dog,cr,1030_cl_dnn_cr_dog_40_n02087394_7104.png
barlow_twins,1,1031,NaN,airplane,boat,bw,1031_cl_dnn_bw_boat_40_n03662601_34174.png
barlow_twins,1,1032,NaN,bicycle,knife,bw,1032_cl_dnn_bw_knife_40_n03041632_3101.png
barlow_twins,1,1033,NaN,bicycle,clock,cr,1033_cl_dnn_cr_clock_40_n02708093_7076.png
barlow_twins,1,1034,NaN,clock,bottle,cr,1034_cl_dnn_cr_bottle_40_n03983396_21043.png
barlow_twins,1,1035,NaN,car,bear,bw,1035_cl_dnn_bw_bear_40_n02134418_2324.png
barlow_twins,1,1036,NaN,bicycle,boat,cr,1036_cl_dnn_cr_boat_40_n04273569_15892.png
barlow_twins,1,1037,NaN,bicycle,bottle,bw,1037_cl_dnn_bw_bottle_40_n03937543_9756.png
barlow_twins,1,1038,NaN,bicycle,cat,cr,1038_cl_dnn_cr_cat_40_n02125311_8567.png
barlow_twins,1,1039,NaN,bicycle,bear,cr,1039_cl_dnn_cr_bear_40_n02134418_1482.png
barlow_twins,1,1040,NaN,airplane,knife,cr,1040_cl_dnn_cr_knife_40_n03041632_17285.png
barlow_twins,1,1041,NaN,airplane,bird,cr,1041_cl_dnn_cr_bird_40_n01855672_7647.png
barlow_twins,1,1042,NaN,airplane,keyboard,bw,1042_cl_dnn_bw_keyboard_40_n04505470_4202.png
barlow_twins,1,1043,NaN,oven,chair,bw,1043_cl_dnn_bw_chair_40_n04429376_14170.png
barlow_twins,1,1044,NaN,knife,knife,bw,1044_cl_dnn_bw_knife_40_n03041632_10109.png
barlow_twins,1,1045,NaN,airplane,oven,bw,1045_cl_dnn_bw_oven_40_n04111531_12830.png
barlow_twins,1,1046,NaN,airplane,bottle,cr,1046_cl_dnn_cr_bottle_40_n02823428_5813.png
barlow_twins,1,1047,NaN,clock,keyboard,cr,1047_cl_dnn_cr_keyboard_40_n04505470_1518.png
barlow_twins,1,1048,NaN,airplane,chair,cr,1048_cl_dnn_cr_chair_40_n04429376_7181.png
barlow_twins,1,1049,NaN,airplane,car,cr,1049_cl_dnn_cr_car_40_n03100240_1910.png
barlow_twins,1,1050,NaN,boat,elephant,bw,1050_cl_dnn_bw_elephant_40_n02504458_1961.png
barlow_twins,1,1051,NaN,oven,elephant,bw,1051_cl_dnn_bw_elephant_40_n02504458_5799.png
barlow_twins,1,1052,NaN,bear,chair,bw,1052_cl_dnn_bw_chair_40_n03376595_6673.png
barlow_twins,1,1053,NaN,clock,bird,cr,1053_cl_dnn_cr_bird_40_n01860187_285.png
barlow_twins,1,1054,NaN,clock,airplane,cr,1054_cl_dnn_cr_airplane_40_n02690373_6854.png
barlow_twins,1,1055,NaN,airplane,airplane,cr,1055_cl_dnn_cr_airplane_40_n02690373_6845.png
barlow_twins,1,1056,NaN,airplane,chair,bw,1056_cl_dnn_bw_chair_40_n03376595_10266.png
barlow_twins,1,1057,NaN,chair,airplane,cr,1057_cl_dnn_cr_airplane_40_n02690373_8231.png
barlow_twins,1,1058,NaN,airplane,keyboard,cr,1058_cl_dnn_cr_keyboard_40_n03085013_17455.png
barlow_twins,1,1059,NaN,clock,oven,cr,1059_cl_dnn_cr_oven_40_n04111531_8688.png
barlow_twins,1,1060,NaN,knife,truck,cr,1060_cl_dnn_cr_truck_40_n03796401_23711.png
barlow_twins,1,1061,NaN,knife,truck,bw,1061_cl_dnn_bw_truck_40_n04467665_53635.png
barlow_twins,1,1062,NaN,clock,car,bw,1062_cl_dnn_bw_car_40_n02814533_45312.png
barlow_twins,1,1063,NaN,knife,knife,cr,1063_cl_dnn_cr_knife_40_n03041632_29276.png
barlow_twins,1,1064,NaN,clock,dog,bw,1064_cl_dnn_bw_dog_40_n02090721_464.png
barlow_twins,1,1065,NaN,clock,airplane,cr,1065_cl_dnn_cr_airplane_40_n02690373_7145.png
barlow_twins,1,1066,NaN,airplane,truck,cr,1066_cl_dnn_cr_truck_40_n03796401_17616.png
barlow_twins,1,1067,NaN,airplane,knife,cr,1067_cl_dnn_cr_knife_40_n03041632_27929.png
barlow_twins,1,1068,NaN,clock,boat,cr,1068_cl_dnn_cr_boat_40_n03344393_661.png
barlow_twins,1,1069,NaN,oven,knife,bw,1069_cl_dnn_bw_knife_40_n03041632_33739.png
barlow_twins,1,1070,NaN,bear,keyboard,bw,1070_cl_dnn_bw_keyboard_40_n03085013_7440.png
barlow_twins,1,1071,NaN,knife,truck,cr,1071_cl_dnn_cr_truck_40_n03796401_17318.png
barlow_twins,1,1072,NaN,clock,car,cr,1072_cl_dnn_cr_car_40_n02814533_50194.png
barlow_twins,1,1073,NaN,car,truck,bw,1073_cl_dnn_bw_truck_40_n04467665_9459.png
barlow_twins,1,1074,NaN,bicycle,knife,bw,1074_cl_dnn_bw_knife_40_n03041632_13203.png
barlow_twins,1,1075,NaN,car,truck,bw,1075_cl_dnn_bw_truck_40_n03417042_19585.png
barlow_twins,1,1076,NaN,elephant,keyboard,cr,1076_cl_dnn_cr_keyboard_40_n04505470_4594.png
barlow_twins,1,1077,NaN,clock,bicycle,cr,1077_cl_dnn_cr_bicycle_40_n03792782_11115.png
barlow_twins,1,1078,NaN,boat,car,bw,1078_cl_dnn_bw_car_40_n04285008_8784.png
barlow_twins,1,1079,NaN,clock,keyboard,cr,1079_cl_dnn_cr_keyboard_40_n03085013_35084.png
barlow_twins,1,1080,NaN,airplane,bottle,cr,1080_cl_dnn_cr_bottle_40_n04579145_1134.png
barlow_twins,1,1081,NaN,elephant,bottle,bw,1081_cl_dnn_bw_bottle_40_n02823428_1154.png
barlow_twins,1,1082,NaN,airplane,clock,cr,1082_cl_dnn_cr_clock_40_n04548280_5237.png
barlow_twins,1,1083,NaN,airplane,keyboard,bw,1083_cl_dnn_bw_keyboard_40_n03085013_3632.png
barlow_twins,1,1084,NaN,airplane,bicycle,cr,1084_cl_dnn_cr_bicycle_40_n02835271_17914.png
barlow_twins,1,1085,NaN,bicycle,cat,bw,1085_cl_dnn_bw_cat_40_n02123045_3568.png
barlow_twins,1,1086,NaN,knife,truck,cr,1086_cl_dnn_cr_truck_40_n03417042_14575.png
barlow_twins,1,1087,NaN,clock,dog,cr,1087_cl_dnn_cr_dog_40_n02102480_5452.png
barlow_twins,1,1088,NaN,airplane,clock,bw,1088_cl_dnn_bw_clock_40_n04548280_4354.png
barlow_twins,1,1089,NaN,airplane,knife,bw,1089_cl_dnn_bw_knife_40_n03041632_3063.png
barlow_twins,1,1090,NaN,knife,cat,cr,1090_cl_dnn_cr_cat_40_n02123394_3605.png
barlow_twins,1,1091,NaN,clock,elephant,cr,1091_cl_dnn_cr_elephant_40_n02504013_4523.png
barlow_twins,1,1092,NaN,airplane,bird,cr,1092_cl_dnn_cr_bird_40_n02009229_6551.png
barlow_twins,1,1093,NaN,clock,bird,bw,1093_cl_dnn_bw_bird_40_n01531178_32624.png
barlow_twins,1,1094,NaN,car,chair,cr,1094_cl_dnn_cr_chair_40_n03376595_19165.png
barlow_twins,1,1095,NaN,car,cat,bw,1095_cl_dnn_bw_cat_40_n02125311_7527.png
barlow_twins,1,1096,NaN,car,bird,bw,1096_cl_dnn_bw_bird_40_n01829413_1997.png
barlow_twins,1,1097,NaN,bicycle,dog,bw,1097_cl_dnn_bw_dog_40_n02108915_4936.png
barlow_twins,1,1098,NaN,oven,bear,bw,1098_cl_dnn_bw_bear_40_n02132136_26027.png
barlow_twins,1,1099,NaN,bicycle,bear,cr,1099_cl_dnn_cr_bear_40_n02132136_5158.png
barlow_twins,1,1100,NaN,bicycle,cat,bw,1100_cl_dnn_bw_cat_40_n02123159_4879.png
barlow_twins,1,1101,NaN,clock,dog,bw,1101_cl_dnn_bw_dog_40_n02088466_292.png
barlow_twins,1,1102,NaN,car,bird,cr,1102_cl_dnn_cr_bird_40_n01843383_10720.png
barlow_twins,1,1103,NaN,clock,boat,bw,1103_cl_dnn_bw_boat_40_n02951358_4485.png
barlow_twins,1,1104,NaN,clock,bear,cr,1104_cl_dnn_cr_bear_40_n02133161_1490.png
barlow_twins,1,1105,NaN,airplane,oven,cr,1105_cl_dnn_cr_oven_40_n04111531_7072.png
barlow_twins,1,1106,NaN,knife,boat,bw,1106_cl_dnn_bw_boat_40_n03662601_1197.png
barlow_twins,1,1107,NaN,clock,chair,cr,1107_cl_dnn_cr_chair_40_n04429376_21546.png
barlow_twins,1,1108,NaN,elephant,keyboard,bw,1108_cl_dnn_bw_keyboard_40_n04505470_3666.png
barlow_twins,1,1109,NaN,knife,airplane,cr,1109_cl_dnn_cr_airplane_40_n02690373_1233.png
barlow_twins,1,1110,NaN,airplane,boat,cr,1110_cl_dnn_cr_boat_40_n03662601_27023.png
barlow_twins,1,1111,NaN,bicycle,bottle,bw,1111_cl_dnn_bw_bottle_40_n04560804_29208.png
barlow_twins,1,1112,NaN,knife,airplane,bw,1112_cl_dnn_bw_airplane_40_n02690373_6992.png
barlow_twins,1,1113,NaN,car,boat,cr,1113_cl_dnn_cr_boat_40_n03344393_4496.png
barlow_twins,1,1114,NaN,bicycle,cat,bw,1114_cl_dnn_bw_cat_40_n02123045_6773.png
barlow_twins,1,1115,NaN,clock,oven,bw,1115_cl_dnn_bw_oven_40_n04111531_14329.png
barlow_twins,1,1116,NaN,clock,airplane,cr,1116_cl_dnn_cr_airplane_40_n02690373_16250.png
barlow_twins,1,1117,NaN,bicycle,cat,bw,1117_cl_dnn_bw_cat_40_n02123159_7851.png
barlow_twins,1,1118,NaN,clock,clock,cr,1118_cl_dnn_cr_clock_40_n03196217_3267.png
barlow_twins,1,1119,NaN,airplane,bottle,bw,1119_cl_dnn_bw_bottle_40_n03937543_1995.png
barlow_twins,1,1120,NaN,oven,elephant,bw,1120_cl_dnn_bw_elephant_40_n02504013_8638.png
barlow_twins,1,1121,NaN,clock,bicycle,bw,1121_cl_dnn_bw_bicycle_40_n03792782_2628.png
barlow_twins,1,1122,NaN,airplane,dog,cr,1122_cl_dnn_cr_dog_40_n02102318_19745.png
barlow_twins,1,1123,NaN,clock,car,cr,1123_cl_dnn_cr_car_40_n03100240_6627.png
barlow_twins,1,1124,NaN,oven,bicycle,bw,1124_cl_dnn_bw_bicycle_40_n03792782_7003.png
barlow_twins,1,1125,NaN,clock,car,cr,1125_cl_dnn_cr_car_40_n04285008_713.png
barlow_twins,1,1126,NaN,bear,keyboard,cr,1126_cl_dnn_cr_keyboard_40_n03085013_17305.png
barlow_twins,1,1127,NaN,chair,keyboard,cr,1127_cl_dnn_cr_keyboard_40_n03085013_2842.png
barlow_twins,1,1128,NaN,knife,truck,cr,1128_cl_dnn_cr_truck_40_n03417042_7337.png
barlow_twins,1,1129,NaN,clock,bird,bw,1129_cl_dnn_bw_bird_40_n01843065_10565.png
barlow_twins,1,1130,NaN,clock,clock,bw,1130_cl_dnn_bw_clock_40_n03196217_243.png
barlow_twins,1,1131,NaN,airplane,bottle,bw,1131_cl_dnn_bw_bottle_40_n02823428_4405.png
barlow_twins,1,1132,NaN,knife,truck,bw,1132_cl_dnn_bw_truck_40_n03417042_27907.png
barlow_twins,1,1133,NaN,knife,knife,cr,1133_cl_dnn_cr_knife_40_n03041632_56436.png
barlow_twins,1,1134,NaN,clock,keyboard,cr,1134_cl_dnn_cr_keyboard_40_n04505470_2889.png
barlow_twins,1,1135,NaN,bicycle,dog,bw,1135_cl_dnn_bw_dog_40_n02093256_1653.png
barlow_twins,1,1136,NaN,knife,airplane,cr,1136_cl_dnn_cr_airplane_40_n02690373_9939.png
barlow_twins,1,1137,NaN,airplane,dog,bw,1137_cl_dnn_bw_dog_40_n02106550_10279.png
barlow_twins,1,1138,NaN,clock,bird,cr,1138_cl_dnn_cr_bird_40_n01537544_23002.png
barlow_twins,1,1139,NaN,clock,bird,cr,1139_cl_dnn_cr_bird_40_n02028035_12542.png
barlow_twins,1,1140,NaN,car,bicycle,bw,1140_cl_dnn_bw_bicycle_40_n03792782_551.png
barlow_twins,1,1141,NaN,bicycle,elephant,cr,1141_cl_dnn_cr_elephant_40_n02504458_7839.png
barlow_twins,1,1142,NaN,oven,clock,bw,1142_cl_dnn_bw_clock_40_n02708093_3484.png
barlow_twins,1,1143,NaN,car,boat,cr,1143_cl_dnn_cr_boat_40_n03662601_26681.png
barlow_twins,1,1144,NaN,boat,dog,cr,1144_cl_dnn_cr_dog_40_n02099849_6488.png
barlow_twins,1,1145,NaN,elephant,dog,bw,1145_cl_dnn_bw_dog_40_n02110063_16336.png
barlow_twins,1,1146,NaN,clock,bird,cr,1146_cl_dnn_cr_bird_40_n01833805_8584.png
barlow_twins,1,1147,NaN,clock,chair,cr,1147_cl_dnn_cr_chair_40_n02791124_3323.png
barlow_twins,1,1148,NaN,oven,car,bw,1148_cl_dnn_bw_car_40_n03100240_10982.png
barlow_twins,1,1149,NaN,airplane,boat,cr,1149_cl_dnn_cr_boat_40_n03662601_873.png
barlow_twins,1,1150,NaN,bicycle,cat,cr,1150_cl_dnn_cr_cat_40_n02123159_1794.png
barlow_twins,1,1151,NaN,airplane,airplane,bw,1151_cl_dnn_bw_airplane_40_n02690373_2316.png
barlow_twins,1,1152,NaN,bear,chair,cr,1152_cl_dnn_cr_chair_40_n02791124_359.png
barlow_twins,1,1153,NaN,clock,bottle,bw,1153_cl_dnn_bw_bottle_40_n04579145_5921.png
barlow_twins,1,1154,NaN,clock,elephant,bw,1154_cl_dnn_bw_elephant_40_n02504013_8308.png
barlow_twins,1,1155,NaN,car,boat,cr,1155_cl_dnn_cr_boat_40_n02951358_10162.png
barlow_twins,1,1156,NaN,clock,car,cr,1156_cl_dnn_cr_car_40_n04285008_6131.png
barlow_twins,1,1157,NaN,airplane,dog,cr,1157_cl_dnn_cr_dog_40_n02097130_5045.png
barlow_twins,1,1158,NaN,clock,oven,bw,1158_cl_dnn_bw_oven_40_n04111531_9702.png
barlow_twins,1,1159,NaN,oven,car,cr,1159_cl_dnn_cr_car_40_n02814533_55399.png
barlow_twins,1,1160,NaN,bicycle,car,cr,1160_cl_dnn_cr_car_40_n04285008_7749.png
barlow_twins,1,1161,NaN,clock,bird,cr,1161_cl_dnn_cr_bird_40_n01828970_23168.png
barlow_twins,1,1162,NaN,clock,airplane,cr,1162_cl_dnn_cr_airplane_40_n02690373_6212.png
barlow_twins,1,1163,NaN,clock,keyboard,bw,1163_cl_dnn_bw_keyboard_40_n04505470_4477.png
barlow_twins,1,1164,NaN,airplane,keyboard,bw,1164_cl_dnn_bw_keyboard_40_n04505470_2907.png
barlow_twins,1,1165,NaN,car,oven,bw,1165_cl_dnn_bw_oven_40_n04111531_7189.png
barlow_twins,1,1166,NaN,car,chair,bw,1166_cl_dnn_bw_chair_40_n04429376_12337.png
barlow_twins,1,1167,NaN,elephant,oven,cr,1167_cl_dnn_cr_oven_40_n04111531_8959.png
barlow_twins,1,1168,NaN,oven,clock,cr,1168_cl_dnn_cr_clock_40_n04548280_2988.png
barlow_twins,1,1169,NaN,keyboard,boat,bw,1169_cl_dnn_bw_boat_40_n03344393_6458.png
barlow_twins,1,1170,NaN,car,dog,cr,1170_cl_dnn_cr_dog_40_n02110185_7540.png
barlow_twins,1,1171,NaN,airplane,dog,cr,1171_cl_dnn_cr_dog_40_n02097658_652.png
barlow_twins,1,1172,NaN,oven,elephant,cr,1172_cl_dnn_cr_elephant_40_n02504458_1661.png
barlow_twins,1,1173,NaN,airplane,truck,cr,1173_cl_dnn_cr_truck_40_n03417042_9580.png
barlow_twins,1,1174,NaN,oven,truck,bw,1174_cl_dnn_bw_truck_40_n04467665_31376.png
barlow_twins,1,1175,NaN,clock,truck,cr,1175_cl_dnn_cr_truck_40_n03796401_5515.png
barlow_twins,1,1176,NaN,bear,dog,bw,1176_cl_dnn_bw_dog_40_n02099849_4121.png
barlow_twins,1,1177,NaN,bear,bird,bw,1177_cl_dnn_bw_bird_40_n01817953_6548.png
barlow_twins,1,1178,NaN,airplane,chair,bw,1178_cl_dnn_bw_chair_40_n04429376_15334.png
barlow_twins,1,1179,NaN,oven,bicycle,cr,1179_cl_dnn_cr_bicycle_40_n03792782_7570.png
barlow_twins,1,1180,NaN,bicycle,truck,cr,1180_cl_dnn_cr_truck_40_n03417042_7005.png
barlow_twins,1,1181,NaN,knife,car,bw,1181_cl_dnn_bw_car_40_n02814533_10557.png
barlow_twins,1,1182,NaN,keyboard,elephant,cr,1182_cl_dnn_cr_elephant_40_n02504013_7026.png
barlow_twins,1,1183,NaN,boat,keyboard,bw,1183_cl_dnn_bw_keyboard_40_n04505470_361.png
barlow_twins,1,1184,NaN,clock,dog,bw,1184_cl_dnn_bw_dog_40_n02099712_7604.png
barlow_twins,1,1185,NaN,knife,dog,cr,1185_cl_dnn_cr_dog_40_n02113799_6997.png
barlow_twins,1,1186,NaN,oven,bear,cr,1186_cl_dnn_cr_bear_40_n02132136_10622.png
barlow_twins,1,1187,NaN,knife,truck,cr,1187_cl_dnn_cr_truck_40_n04467665_64492.png
barlow_twins,1,1188,NaN,airplane,keyboard,cr,1188_cl_dnn_cr_keyboard_40_n03085013_30335.png
barlow_twins,1,1189,NaN,bicycle,bird,bw,1189_cl_dnn_bw_bird_40_n01795545_6290.png
barlow_twins,1,1190,NaN,boat,dog,cr,1190_cl_dnn_cr_dog_40_n02093647_4091.png
barlow_twins,1,1191,NaN,airplane,dog,cr,1191_cl_dnn_cr_dog_40_n02096294_2375.png
barlow_twins,1,1192,NaN,clock,bicycle,bw,1192_cl_dnn_bw_bicycle_40_n02835271_381.png
barlow_twins,1,1193,NaN,car,bicycle,bw,1193_cl_dnn_bw_bicycle_40_n02835271_4742.png
barlow_twins,1,1194,NaN,keyboard,chair,bw,1194_cl_dnn_bw_chair_40_n04099969_11863.png
barlow_twins,1,1195,NaN,knife,airplane,bw,1195_cl_dnn_bw_airplane_40_n02690373_17130.png
barlow_twins,1,1196,NaN,chair,chair,bw,1196_cl_dnn_bw_chair_40_n02791124_957.png
barlow_twins,1,1197,NaN,car,bicycle,cr,1197_cl_dnn_cr_bicycle_40_n02835271_10377.png
barlow_twins,1,1198,NaN,chair,chair,cr,1198_cl_dnn_cr_chair_40_n02791124_2796.png
barlow_twins,1,1199,NaN,airplane,chair,bw,1199_cl_dnn_bw_chair_40_n02791124_2491.png
