subj,session,trial,rt,object_response,category,condition,imagename
dino_v8,1,1,NaN,car,oven,1-10-10,0001_eid_dnn_1-10-10_oven_10_n04111531_17072.png
dino_v8,1,2,NaN,keyboard,airplane,16-10-10,0002_eid_dnn_16-10-10_airplane_10_n02690373_4183.png
dino_v8,1,3,NaN,keyboard,car,8-10-10,0003_eid_dnn_8-10-10_car_10_n03100240_1137.png
dino_v8,1,4,NaN,oven,clock,2-10-10,0004_eid_dnn_2-10-10_clock_10_n04548280_7083.png
dino_v8,1,5,NaN,knife,bottle,2-10-10,0005_eid_dnn_2-10-10_bottle_10_n02823428_7810.png
dino_v8,1,6,NaN,keyboard,dog,128-10-10,0006_eid_dnn_128-10-10_dog_10_n02091244_8368.png
dino_v8,1,7,NaN,oven,bicycle,1-10-10,0007_eid_dnn_1-10-10_bicycle_10_n02835271_2930.png
dino_v8,1,8,NaN,oven,knife,4-10-10,0008_eid_dnn_4-10-10_knife_10_n03041632_52848.png
dino_v8,1,9,NaN,bear,bottle,2-10-10,0009_eid_dnn_2-10-10_bottle_10_n02823428_4097.png
dino_v8,1,10,NaN,oven,dog,8-10-10,0010_eid_dnn_8-10-10_dog_10_n02105641_10264.png
dino_v8,1,11,NaN,elephant,boat,8-10-10,0011_eid_dnn_8-10-10_boat_10_n03662601_10278.png
dino_v8,1,12,NaN,keyboard,truck,32-10-10,0012_eid_dnn_32-10-10_truck_10_n04467665_76958.png
dino_v8,1,13,NaN,elephant,dog,16-10-10,0013_eid_dnn_16-10-10_dog_10_n02088238_12552.png
dino_v8,1,14,NaN,airplane,dog,8-10-10,0014_eid_dnn_8-10-10_dog_10_n02102040_994.png
dino_v8,1,15,NaN,keyboard,bear,128-10-10,0015_eid_dnn_128-10-10_bear_10_n02133161_1944.png
dino_v8,1,16,NaN,airplane,car,16-10-10,0016_eid_dnn_16-10-10_car_10_n02814533_43040.png
dino_v8,1,17,NaN,boat,oven,128-10-10,0017_eid_dnn_128-10-10_oven_10_n04111531_18592.png
dino_v8,1,18,NaN,airplane,chair,16-10-10,0018_eid_dnn_16-10-10_chair_10_n02791124_4294.png
dino_v8,1,19,NaN,keyboard,knife,32-10-10,0019_eid_dnn_32-10-10_knife_10_n03041632_2630.png
dino_v8,1,20,NaN,airplane,elephant,1-10-10,0020_eid_dnn_1-10-10_elephant_10_n02504458_723.png
dino_v8,1,21,NaN,keyboard,chair,4-10-10,0021_eid_dnn_4-10-10_chair_10_n03376595_6107.png
dino_v8,1,22,NaN,keyboard,clock,32-10-10,0022_eid_dnn_32-10-10_clock_10_n03196217_1337.png
dino_v8,1,23,NaN,airplane,boat,128-10-10,0023_eid_dnn_128-10-10_boat_10_n02951358_9550.png
dino_v8,1,24,NaN,keyboard,bird,128-10-10,0024_eid_dnn_128-10-10_bird_10_n01616318_2334.png
dino_v8,1,25,NaN,keyboard,bottle,32-10-10,0025_eid_dnn_32-10-10_bottle_10_n03937543_1658.png
dino_v8,1,26,NaN,elephant,elephant,2-10-10,0026_eid_dnn_2-10-10_elephant_10_n02504013_6731.png
dino_v8,1,27,NaN,boat,keyboard,4-10-10,0027_eid_dnn_4-10-10_keyboard_10_n04505470_4447.png
dino_v8,1,28,NaN,oven,airplane,1-10-10,0028_eid_dnn_1-10-10_airplane_10_n02690373_4839.png
dino_v8,1,29,NaN,keyboard,keyboard,64-10-10,0029_eid_dnn_64-10-10_keyboard_10_n04505470_1651.png
dino_v8,1,30,NaN,knife,keyboard,32-10-10,0030_eid_dnn_32-10-10_keyboard_10_n03085013_20601.png
dino_v8,1,31,NaN,airplane,airplane,64-10-10,0031_eid_dnn_64-10-10_airplane_10_n02690373_2217.png
dino_v8,1,32,NaN,oven,bicycle,4-10-10,0032_eid_dnn_4-10-10_bicycle_10_n03792782_25019.png
dino_v8,1,33,NaN,airplane,cat,8-10-10,0033_eid_dnn_8-10-10_cat_10_n02123597_13890.png
dino_v8,1,34,NaN,oven,boat,1-10-10,0034_eid_dnn_1-10-10_boat_10_n04612504_214.png
dino_v8,1,35,NaN,knife,chair,128-10-10,0035_eid_dnn_128-10-10_chair_10_n02791124_2555.png
dino_v8,1,36,NaN,airplane,car,4-10-10,0036_eid_dnn_4-10-10_car_10_n04285008_2081.png
dino_v8,1,37,NaN,airplane,dog,32-10-10,0037_eid_dnn_32-10-10_dog_10_n02094114_8202.png
dino_v8,1,38,NaN,keyboard,chair,64-10-10,0038_eid_dnn_64-10-10_chair_10_n04099969_4541.png
dino_v8,1,39,NaN,keyboard,boat,128-10-10,0039_eid_dnn_128-10-10_boat_10_n04612504_12864.png
dino_v8,1,40,NaN,keyboard,airplane,4-10-10,0040_eid_dnn_4-10-10_airplane_10_n02690373_18460.png
dino_v8,1,41,NaN,keyboard,bottle,64-10-10,0041_eid_dnn_64-10-10_bottle_10_n03983396_8982.png
dino_v8,1,42,NaN,keyboard,dog,16-10-10,0042_eid_dnn_16-10-10_dog_10_n02099601_10407.png
dino_v8,1,43,NaN,keyboard,airplane,32-10-10,0043_eid_dnn_32-10-10_airplane_10_n02690373_5253.png
dino_v8,1,44,NaN,airplane,elephant,2-10-10,0044_eid_dnn_2-10-10_elephant_10_n02504013_2832.png
dino_v8,1,45,NaN,clock,clock,1-10-10,0045_eid_dnn_1-10-10_clock_10_n02708093_8002.png
dino_v8,1,46,NaN,keyboard,chair,2-10-10,0046_eid_dnn_2-10-10_chair_10_n03376595_1766.png
dino_v8,1,47,NaN,oven,truck,2-10-10,0047_eid_dnn_2-10-10_truck_10_n03417042_17616.png
dino_v8,1,48,NaN,keyboard,bear,16-10-10,0048_eid_dnn_16-10-10_bear_10_n02134418_2804.png
dino_v8,1,49,NaN,keyboard,car,64-10-10,0049_eid_dnn_64-10-10_car_10_n04285008_12101.png
dino_v8,1,50,NaN,knife,bear,16-10-10,0050_eid_dnn_16-10-10_bear_10_n02134418_3828.png
dino_v8,1,51,NaN,keyboard,bird,2-10-10,0051_eid_dnn_2-10-10_bird_10_n01530575_5747.png
dino_v8,1,52,NaN,keyboard,truck,128-10-10,0052_eid_dnn_128-10-10_truck_10_n03796401_3386.png
dino_v8,1,53,NaN,boat,keyboard,16-10-10,0053_eid_dnn_16-10-10_keyboard_10_n04505470_3234.png
dino_v8,1,54,NaN,knife,truck,1-10-10,0054_eid_dnn_1-10-10_truck_10_n04467665_72639.png
dino_v8,1,55,NaN,keyboard,chair,32-10-10,0055_eid_dnn_32-10-10_chair_10_n04429376_27524.png
dino_v8,1,56,NaN,keyboard,bottle,64-10-10,0056_eid_dnn_64-10-10_bottle_10_n04557648_11440.png
dino_v8,1,57,NaN,keyboard,keyboard,32-10-10,0057_eid_dnn_32-10-10_keyboard_10_n03085013_20216.png
dino_v8,1,58,NaN,keyboard,boat,8-10-10,0058_eid_dnn_8-10-10_boat_10_n02951358_34653.png
dino_v8,1,59,NaN,bear,keyboard,2-10-10,0059_eid_dnn_2-10-10_keyboard_10_n03085013_8932.png
dino_v8,1,60,NaN,boat,cat,1-10-10,0060_eid_dnn_1-10-10_cat_10_n02125311_35338.png
dino_v8,1,61,NaN,keyboard,bicycle,16-10-10,0061_eid_dnn_16-10-10_bicycle_10_n03792782_5449.png
dino_v8,1,62,NaN,keyboard,bicycle,4-10-10,0062_eid_dnn_4-10-10_bicycle_10_n03792782_9432.png
dino_v8,1,63,NaN,oven,bottle,1-10-10,0063_eid_dnn_1-10-10_bottle_10_n04591713_4291.png
dino_v8,1,64,NaN,knife,truck,4-10-10,0064_eid_dnn_4-10-10_truck_10_n04467665_67057.png
dino_v8,1,65,NaN,airplane,keyboard,1-10-10,0065_eid_dnn_1-10-10_keyboard_10_n03085013_22790.png
dino_v8,1,66,NaN,bear,dog,4-10-10,0066_eid_dnn_4-10-10_dog_10_n02086079_2896.png
dino_v8,1,67,NaN,keyboard,knife,8-10-10,0067_eid_dnn_8-10-10_knife_10_n03041632_40508.png
dino_v8,1,68,NaN,keyboard,boat,1-10-10,0068_eid_dnn_1-10-10_boat_10_n03344393_7942.png
dino_v8,1,69,NaN,elephant,bear,2-10-10,0069_eid_dnn_2-10-10_bear_10_n02134418_4352.png
dino_v8,1,70,NaN,keyboard,cat,16-10-10,0070_eid_dnn_16-10-10_cat_10_n02123045_5157.png
dino_v8,1,71,NaN,keyboard,dog,16-10-10,0071_eid_dnn_16-10-10_dog_10_n02109047_14287.png
dino_v8,1,72,NaN,car,truck,2-10-10,0072_eid_dnn_2-10-10_truck_10_n03417042_14274.png
dino_v8,1,73,NaN,airplane,airplane,2-10-10,0073_eid_dnn_2-10-10_airplane_10_n02690373_5885.png
dino_v8,1,74,NaN,keyboard,cat,32-10-10,0074_eid_dnn_32-10-10_cat_10_n02123394_571.png
dino_v8,1,75,NaN,keyboard,cat,32-10-10,0075_eid_dnn_32-10-10_cat_10_n02123045_10171.png
dino_v8,1,76,NaN,keyboard,bottle,8-10-10,0076_eid_dnn_8-10-10_bottle_10_n04560804_4909.png
dino_v8,1,77,NaN,airplane,keyboard,8-10-10,0077_eid_dnn_8-10-10_keyboard_10_n03085013_7971.png
dino_v8,1,78,NaN,keyboard,keyboard,16-10-10,0078_eid_dnn_16-10-10_keyboard_10_n03085013_21397.png
dino_v8,1,79,NaN,keyboard,elephant,32-10-10,0079_eid_dnn_32-10-10_elephant_10_n02504458_4187.png
dino_v8,1,80,NaN,airplane,clock,8-10-10,0080_eid_dnn_8-10-10_clock_10_n03196217_6689.png
dino_v8,1,81,NaN,oven,knife,4-10-10,0081_eid_dnn_4-10-10_knife_10_n03041632_26236.png
dino_v8,1,82,NaN,elephant,car,8-10-10,0082_eid_dnn_8-10-10_car_10_n03100240_1262.png
dino_v8,1,83,NaN,airplane,keyboard,64-10-10,0083_eid_dnn_64-10-10_keyboard_10_n04505470_5059.png
dino_v8,1,84,NaN,keyboard,bird,1-10-10,0084_eid_dnn_1-10-10_bird_10_n01537544_26417.png
dino_v8,1,85,NaN,keyboard,bird,32-10-10,0085_eid_dnn_32-10-10_bird_10_n02009912_5714.png
dino_v8,1,86,NaN,keyboard,chair,128-10-10,0086_eid_dnn_128-10-10_chair_10_n03376595_5972.png
dino_v8,1,87,NaN,bottle,chair,2-10-10,0087_eid_dnn_2-10-10_chair_10_n04429376_805.png
dino_v8,1,88,NaN,knife,bicycle,128-10-10,0088_eid_dnn_128-10-10_bicycle_10_n03792782_4083.png
dino_v8,1,89,NaN,cat,clock,1-10-10,0089_eid_dnn_1-10-10_clock_10_n02708093_798.png
dino_v8,1,90,NaN,airplane,bear,1-10-10,0090_eid_dnn_1-10-10_bear_10_n02133161_1660.png
dino_v8,1,91,NaN,keyboard,car,8-10-10,0091_eid_dnn_8-10-10_car_10_n04285008_9464.png
dino_v8,1,92,NaN,airplane,oven,16-10-10,0092_eid_dnn_16-10-10_oven_10_n04111531_3314.png
dino_v8,1,93,NaN,keyboard,cat,128-10-10,0093_eid_dnn_128-10-10_cat_10_n02123394_5753.png
dino_v8,1,94,NaN,elephant,boat,2-10-10,0094_eid_dnn_2-10-10_boat_10_n02951358_34042.png
dino_v8,1,95,NaN,keyboard,truck,64-10-10,0095_eid_dnn_64-10-10_truck_10_n03417042_7588.png
dino_v8,1,96,NaN,keyboard,truck,32-10-10,0096_eid_dnn_32-10-10_truck_10_n03417042_4200.png
dino_v8,1,97,NaN,oven,airplane,4-10-10,0097_eid_dnn_4-10-10_airplane_10_n02690373_4335.png
dino_v8,1,98,NaN,keyboard,elephant,128-10-10,0098_eid_dnn_128-10-10_elephant_10_n02504458_6823.png
dino_v8,1,99,NaN,bicycle,boat,4-10-10,0099_eid_dnn_4-10-10_boat_10_n03344393_4214.png
dino_v8,1,100,NaN,oven,keyboard,4-10-10,0100_eid_dnn_4-10-10_keyboard_10_n03085013_22949.png
dino_v8,1,101,NaN,keyboard,bear,64-10-10,0101_eid_dnn_64-10-10_bear_10_n02132136_31664.png
dino_v8,1,102,NaN,oven,bottle,8-10-10,0102_eid_dnn_8-10-10_bottle_10_n03983396_1985.png
dino_v8,1,103,NaN,cat,airplane,2-10-10,0103_eid_dnn_2-10-10_airplane_10_n02690373_9266.png
dino_v8,1,104,NaN,keyboard,bottle,128-10-10,0104_eid_dnn_128-10-10_bottle_10_n02823428_5961.png
dino_v8,1,105,NaN,keyboard,bottle,4-10-10,0105_eid_dnn_4-10-10_bottle_10_n04579145_1856.png
dino_v8,1,106,NaN,keyboard,clock,64-10-10,0106_eid_dnn_64-10-10_clock_10_n02708093_7810.png
dino_v8,1,107,NaN,boat,dog,1-10-10,0107_eid_dnn_1-10-10_dog_10_n02100735_4949.png
dino_v8,1,108,NaN,knife,chair,32-10-10,0108_eid_dnn_32-10-10_chair_10_n03376595_7275.png
dino_v8,1,109,NaN,truck,bottle,2-10-10,0109_eid_dnn_2-10-10_bottle_10_n03983396_16741.png
dino_v8,1,110,NaN,keyboard,boat,32-10-10,0110_eid_dnn_32-10-10_boat_10_n04612504_8719.png
dino_v8,1,111,NaN,bicycle,chair,1-10-10,0111_eid_dnn_1-10-10_chair_10_n02791124_3570.png
dino_v8,1,112,NaN,keyboard,bear,32-10-10,0112_eid_dnn_32-10-10_bear_10_n02132136_9557.png
dino_v8,1,113,NaN,keyboard,bird,64-10-10,0113_eid_dnn_64-10-10_bird_10_n02002556_5730.png
dino_v8,1,114,NaN,car,oven,4-10-10,0114_eid_dnn_4-10-10_oven_10_n04111531_8959.png
dino_v8,1,115,NaN,keyboard,cat,128-10-10,0115_eid_dnn_128-10-10_cat_10_n02123159_8101.png
dino_v8,1,116,NaN,airplane,cat,8-10-10,0116_eid_dnn_8-10-10_cat_10_n02123597_8890.png
dino_v8,1,117,NaN,cat,elephant,1-10-10,0117_eid_dnn_1-10-10_elephant_10_n02504458_220.png
dino_v8,1,118,NaN,keyboard,bicycle,128-10-10,0118_eid_dnn_128-10-10_bicycle_10_n02835271_2651.png
dino_v8,1,119,NaN,keyboard,keyboard,64-10-10,0119_eid_dnn_64-10-10_keyboard_10_n04505470_1581.png
dino_v8,1,120,NaN,car,truck,4-10-10,0120_eid_dnn_4-10-10_truck_10_n04467665_1719.png
dino_v8,1,121,NaN,knife,truck,2-10-10,0121_eid_dnn_2-10-10_truck_10_n04467665_30756.png
dino_v8,1,122,NaN,airplane,oven,64-10-10,0122_eid_dnn_64-10-10_oven_10_n04111531_1818.png
dino_v8,1,123,NaN,keyboard,elephant,64-10-10,0123_eid_dnn_64-10-10_elephant_10_n02504013_2974.png
dino_v8,1,124,NaN,keyboard,bicycle,128-10-10,0124_eid_dnn_128-10-10_bicycle_10_n03792782_7713.png
dino_v8,1,125,NaN,keyboard,clock,16-10-10,0125_eid_dnn_16-10-10_clock_10_n04548280_9700.png
dino_v8,1,126,NaN,keyboard,bottle,16-10-10,0126_eid_dnn_16-10-10_bottle_10_n04591713_1174.png
dino_v8,1,127,NaN,keyboard,bear,64-10-10,0127_eid_dnn_64-10-10_bear_10_n02134418_1395.png
dino_v8,1,128,NaN,airplane,bottle,128-10-10,0128_eid_dnn_128-10-10_bottle_10_n04591713_36.png
dino_v8,1,129,NaN,airplane,knife,8-10-10,0129_eid_dnn_8-10-10_knife_10_n03041632_21034.png
dino_v8,1,130,NaN,cat,bicycle,1-10-10,0130_eid_dnn_1-10-10_bicycle_10_n03792782_11115.png
dino_v8,1,131,NaN,keyboard,truck,16-10-10,0131_eid_dnn_16-10-10_truck_10_n03417042_5381.png
dino_v8,1,132,NaN,airplane,boat,64-10-10,0132_eid_dnn_64-10-10_boat_10_n04612504_15258.png
dino_v8,1,133,NaN,clock,boat,2-10-10,0133_eid_dnn_2-10-10_boat_10_n03662601_11972.png
dino_v8,1,134,NaN,keyboard,dog,64-10-10,0134_eid_dnn_64-10-10_dog_10_n02092002_11459.png
dino_v8,1,135,NaN,car,clock,64-10-10,0135_eid_dnn_64-10-10_clock_10_n04548280_6605.png
dino_v8,1,136,NaN,keyboard,boat,64-10-10,0136_eid_dnn_64-10-10_boat_10_n03662601_5600.png
dino_v8,1,137,NaN,airplane,bear,32-10-10,0137_eid_dnn_32-10-10_bear_10_n02134084_8153.png
dino_v8,1,138,NaN,keyboard,cat,64-10-10,0138_eid_dnn_64-10-10_cat_10_n02124075_9225.png
dino_v8,1,139,NaN,knife,bicycle,8-10-10,0139_eid_dnn_8-10-10_bicycle_10_n03792782_3591.png
dino_v8,1,140,NaN,keyboard,dog,64-10-10,0140_eid_dnn_64-10-10_dog_10_n02107142_31661.png
dino_v8,1,141,NaN,oven,elephant,8-10-10,0141_eid_dnn_8-10-10_elephant_10_n02504458_651.png
dino_v8,1,142,NaN,bottle,dog,128-10-10,0142_eid_dnn_128-10-10_dog_10_n02110958_15217.png
dino_v8,1,143,NaN,oven,oven,4-10-10,0143_eid_dnn_4-10-10_oven_10_n04111531_523.png
dino_v8,1,144,NaN,airplane,car,4-10-10,0144_eid_dnn_4-10-10_car_10_n02814533_42884.png
dino_v8,1,145,NaN,keyboard,car,64-10-10,0145_eid_dnn_64-10-10_car_10_n04285008_8017.png
dino_v8,1,146,NaN,elephant,car,1-10-10,0146_eid_dnn_1-10-10_car_10_n03100240_16766.png
dino_v8,1,147,NaN,keyboard,elephant,8-10-10,0147_eid_dnn_8-10-10_elephant_10_n02504458_4593.png
dino_v8,1,148,NaN,car,chair,64-10-10,0148_eid_dnn_64-10-10_chair_10_n02791124_1358.png
dino_v8,1,149,NaN,knife,dog,16-10-10,0149_eid_dnn_16-10-10_dog_10_n02095314_5363.png
dino_v8,1,150,NaN,bear,clock,8-10-10,0150_eid_dnn_8-10-10_clock_10_n04548280_1413.png
dino_v8,1,151,NaN,chair,dog,1-10-10,0151_eid_dnn_1-10-10_dog_10_n02105641_10948.png
dino_v8,1,152,NaN,oven,dog,1-10-10,0152_eid_dnn_1-10-10_dog_10_n02113624_1691.png
dino_v8,1,153,NaN,oven,car,4-10-10,0153_eid_dnn_4-10-10_car_10_n03100240_2235.png
dino_v8,1,154,NaN,keyboard,chair,2-10-10,0154_eid_dnn_2-10-10_chair_10_n04099969_56470.png
dino_v8,1,155,NaN,clock,oven,2-10-10,0155_eid_dnn_2-10-10_oven_10_n04111531_5429.png
dino_v8,1,156,NaN,keyboard,keyboard,64-10-10,0156_eid_dnn_64-10-10_keyboard_10_n03085013_19317.png
dino_v8,1,157,NaN,keyboard,bird,64-10-10,0157_eid_dnn_64-10-10_bird_10_n01601694_19650.png
dino_v8,1,158,NaN,keyboard,clock,128-10-10,0158_eid_dnn_128-10-10_clock_10_n03196217_11199.png
dino_v8,1,159,NaN,keyboard,bottle,32-10-10,0159_eid_dnn_32-10-10_bottle_10_n03937543_2209.png
dino_v8,1,160,NaN,keyboard,car,64-10-10,0160_eid_dnn_64-10-10_car_10_n03100240_16939.png
dino_v8,1,161,NaN,oven,bottle,8-10-10,0161_eid_dnn_8-10-10_bottle_10_n04591713_2501.png
dino_v8,1,162,NaN,keyboard,airplane,16-10-10,0162_eid_dnn_16-10-10_airplane_10_n02690373_10395.png
dino_v8,1,163,NaN,airplane,oven,8-10-10,0163_eid_dnn_8-10-10_oven_10_n04111531_3286.png
dino_v8,1,164,NaN,keyboard,boat,64-10-10,0164_eid_dnn_64-10-10_boat_10_n04273569_13401.png
dino_v8,1,165,NaN,keyboard,elephant,64-10-10,0165_eid_dnn_64-10-10_elephant_10_n02504458_12776.png
dino_v8,1,166,NaN,elephant,bird,2-10-10,0166_eid_dnn_2-10-10_bird_10_n01828970_997.png
dino_v8,1,167,NaN,airplane,bear,8-10-10,0167_eid_dnn_8-10-10_bear_10_n02132136_10318.png
dino_v8,1,168,NaN,keyboard,oven,32-10-10,0168_eid_dnn_32-10-10_oven_10_n04111531_7883.png
dino_v8,1,169,NaN,keyboard,clock,128-10-10,0169_eid_dnn_128-10-10_clock_10_n02708093_725.png
dino_v8,1,170,NaN,oven,bottle,16-10-10,0170_eid_dnn_16-10-10_bottle_10_n04557648_2052.png
dino_v8,1,171,NaN,keyboard,keyboard,32-10-10,0171_eid_dnn_32-10-10_keyboard_10_n04505470_5036.png
dino_v8,1,172,NaN,bear,elephant,8-10-10,0172_eid_dnn_8-10-10_elephant_10_n02504458_13352.png
dino_v8,1,173,NaN,bicycle,chair,4-10-10,0173_eid_dnn_4-10-10_chair_10_n04429376_30620.png
dino_v8,1,174,NaN,keyboard,boat,16-10-10,0174_eid_dnn_16-10-10_boat_10_n03662601_2980.png
dino_v8,1,175,NaN,elephant,boat,8-10-10,0175_eid_dnn_8-10-10_boat_10_n03662601_4734.png
dino_v8,1,176,NaN,airplane,bear,2-10-10,0176_eid_dnn_2-10-10_bear_10_n02134418_4754.png
dino_v8,1,177,NaN,airplane,elephant,2-10-10,0177_eid_dnn_2-10-10_elephant_10_n02504013_8522.png
dino_v8,1,178,NaN,keyboard,bottle,64-10-10,0178_eid_dnn_64-10-10_bottle_10_n03937543_4863.png
dino_v8,1,179,NaN,airplane,car,16-10-10,0179_eid_dnn_16-10-10_car_10_n04285008_10802.png
dino_v8,1,180,NaN,airplane,knife,64-10-10,0180_eid_dnn_64-10-10_knife_10_n03041632_6708.png
dino_v8,1,181,NaN,elephant,dog,1-10-10,0181_eid_dnn_1-10-10_dog_10_n02107142_61109.png
dino_v8,1,182,NaN,airplane,clock,2-10-10,0182_eid_dnn_2-10-10_clock_10_n03196217_8139.png
dino_v8,1,183,NaN,airplane,elephant,1-10-10,0183_eid_dnn_1-10-10_elephant_10_n02504458_6611.png
dino_v8,1,184,NaN,car,truck,64-10-10,0184_eid_dnn_64-10-10_truck_10_n04467665_4401.png
dino_v8,1,185,NaN,keyboard,boat,4-10-10,0185_eid_dnn_4-10-10_boat_10_n03344393_732.png
dino_v8,1,186,NaN,keyboard,knife,4-10-10,0186_eid_dnn_4-10-10_knife_10_n03041632_41381.png
dino_v8,1,187,NaN,airplane,oven,32-10-10,0187_eid_dnn_32-10-10_oven_10_n04111531_22715.png
dino_v8,1,188,NaN,keyboard,cat,16-10-10,0188_eid_dnn_16-10-10_cat_10_n02123045_3568.png
dino_v8,1,189,NaN,airplane,truck,2-10-10,0189_eid_dnn_2-10-10_truck_10_n03796401_18976.png
dino_v8,1,190,NaN,airplane,oven,8-10-10,0190_eid_dnn_8-10-10_oven_10_n04111531_15710.png
dino_v8,1,191,NaN,keyboard,elephant,32-10-10,0191_eid_dnn_32-10-10_elephant_10_n02504013_7232.png
dino_v8,1,192,NaN,keyboard,clock,64-10-10,0192_eid_dnn_64-10-10_clock_10_n02708093_5126.png
dino_v8,1,193,NaN,keyboard,cat,32-10-10,0193_eid_dnn_32-10-10_cat_10_n02123159_1598.png
dino_v8,1,194,NaN,airplane,car,1-10-10,0194_eid_dnn_1-10-10_car_10_n04285008_1661.png
dino_v8,1,195,NaN,cat,clock,2-10-10,0195_eid_dnn_2-10-10_clock_10_n02708093_5551.png
dino_v8,1,196,NaN,car,airplane,128-10-10,0196_eid_dnn_128-10-10_airplane_10_n02690373_693.png
dino_v8,1,197,NaN,airplane,elephant,2-10-10,0197_eid_dnn_2-10-10_elephant_10_n02504013_3409.png
dino_v8,1,198,NaN,airplane,dog,64-10-10,0198_eid_dnn_64-10-10_dog_10_n02113712_8182.png
dino_v8,1,199,NaN,bear,bottle,1-10-10,0199_eid_dnn_1-10-10_bottle_10_n03983396_8322.png
dino_v8,1,200,NaN,keyboard,keyboard,64-10-10,0200_eid_dnn_64-10-10_keyboard_10_n04505470_1040.png
dino_v8,1,201,NaN,keyboard,oven,32-10-10,0201_eid_dnn_32-10-10_oven_10_n04111531_11230.png
dino_v8,1,202,NaN,oven,cat,1-10-10,0202_eid_dnn_1-10-10_cat_10_n02123394_6269.png
dino_v8,1,203,NaN,knife,elephant,2-10-10,0203_eid_dnn_2-10-10_elephant_10_n02504013_2075.png
dino_v8,1,204,NaN,bicycle,bear,1-10-10,0204_eid_dnn_1-10-10_bear_10_n02133161_3795.png
dino_v8,1,205,NaN,oven,oven,2-10-10,0205_eid_dnn_2-10-10_oven_10_n04111531_4322.png
dino_v8,1,206,NaN,knife,bottle,4-10-10,0206_eid_dnn_4-10-10_bottle_10_n03937543_5799.png
dino_v8,1,207,NaN,oven,keyboard,8-10-10,0207_eid_dnn_8-10-10_keyboard_10_n04505470_4414.png
dino_v8,1,208,NaN,elephant,dog,4-10-10,0208_eid_dnn_4-10-10_dog_10_n02091032_8315.png
dino_v8,1,209,NaN,oven,knife,2-10-10,0209_eid_dnn_2-10-10_knife_10_n03041632_39952.png
dino_v8,1,210,NaN,boat,chair,8-10-10,0210_eid_dnn_8-10-10_chair_10_n02791124_634.png
dino_v8,1,211,NaN,airplane,boat,32-10-10,0211_eid_dnn_32-10-10_boat_10_n03344393_3355.png
dino_v8,1,212,NaN,keyboard,dog,32-10-10,0212_eid_dnn_32-10-10_dog_10_n02102040_7188.png
dino_v8,1,213,NaN,keyboard,chair,2-10-10,0213_eid_dnn_2-10-10_chair_10_n02791124_8711.png
dino_v8,1,214,NaN,keyboard,bear,64-10-10,0214_eid_dnn_64-10-10_bear_10_n02132136_6002.png
dino_v8,1,215,NaN,clock,boat,4-10-10,0215_eid_dnn_4-10-10_boat_10_n02951358_30184.png
dino_v8,1,216,NaN,keyboard,bottle,128-10-10,0216_eid_dnn_128-10-10_bottle_10_n02823428_3414.png
dino_v8,1,217,NaN,oven,truck,4-10-10,0217_eid_dnn_4-10-10_truck_10_n04467665_13231.png
dino_v8,1,218,NaN,elephant,chair,4-10-10,0218_eid_dnn_4-10-10_chair_10_n04099969_8063.png
dino_v8,1,219,NaN,elephant,bird,4-10-10,0219_eid_dnn_4-10-10_bird_10_n01534433_10234.png
dino_v8,1,220,NaN,knife,elephant,4-10-10,0220_eid_dnn_4-10-10_elephant_10_n02504013_12533.png
dino_v8,1,221,NaN,keyboard,knife,16-10-10,0221_eid_dnn_16-10-10_knife_10_n03041632_18995.png
dino_v8,1,222,NaN,keyboard,chair,32-10-10,0222_eid_dnn_32-10-10_chair_10_n04429376_7123.png
dino_v8,1,223,NaN,keyboard,clock,64-10-10,0223_eid_dnn_64-10-10_clock_10_n03196217_9065.png
dino_v8,1,224,NaN,bear,dog,4-10-10,0224_eid_dnn_4-10-10_dog_10_n02086079_4143.png
dino_v8,1,225,NaN,airplane,bear,4-10-10,0225_eid_dnn_4-10-10_bear_10_n02132136_20162.png
dino_v8,1,226,NaN,oven,bottle,1-10-10,0226_eid_dnn_1-10-10_bottle_10_n03983396_4165.png
dino_v8,1,227,NaN,keyboard,bird,4-10-10,0227_eid_dnn_4-10-10_bird_10_n01824575_4470.png
dino_v8,1,228,NaN,keyboard,oven,64-10-10,0228_eid_dnn_64-10-10_oven_10_n04111531_9695.png
dino_v8,1,229,NaN,keyboard,bottle,64-10-10,0229_eid_dnn_64-10-10_bottle_10_n02823428_23181.png
dino_v8,1,230,NaN,bottle,bicycle,2-10-10,0230_eid_dnn_2-10-10_bicycle_10_n02835271_13674.png
dino_v8,1,231,NaN,clock,chair,2-10-10,0231_eid_dnn_2-10-10_chair_10_n04429376_55747.png
dino_v8,1,232,NaN,keyboard,boat,32-10-10,0232_eid_dnn_32-10-10_boat_10_n02951358_8346.png
dino_v8,1,233,NaN,keyboard,elephant,16-10-10,0233_eid_dnn_16-10-10_elephant_10_n02504013_1088.png
dino_v8,1,234,NaN,airplane,car,8-10-10,0234_eid_dnn_8-10-10_car_10_n03100240_11191.png
dino_v8,1,235,NaN,airplane,chair,8-10-10,0235_eid_dnn_8-10-10_chair_10_n04099969_19966.png
dino_v8,1,236,NaN,keyboard,bicycle,32-10-10,0236_eid_dnn_32-10-10_bicycle_10_n03792782_15016.png
dino_v8,1,237,NaN,keyboard,boat,128-10-10,0237_eid_dnn_128-10-10_boat_10_n02951358_17867.png
dino_v8,1,238,NaN,knife,cat,2-10-10,0238_eid_dnn_2-10-10_cat_10_n02123045_2364.png
dino_v8,1,239,NaN,airplane,bear,2-10-10,0239_eid_dnn_2-10-10_bear_10_n02132136_9433.png
dino_v8,1,240,NaN,keyboard,clock,32-10-10,0240_eid_dnn_32-10-10_clock_10_n03196217_3167.png
dino_v8,1,241,NaN,keyboard,clock,32-10-10,0241_eid_dnn_32-10-10_clock_10_n03196217_3129.png
dino_v8,1,242,NaN,keyboard,keyboard,128-10-10,0242_eid_dnn_128-10-10_keyboard_10_n03085013_6067.png
dino_v8,1,243,NaN,boat,keyboard,2-10-10,0243_eid_dnn_2-10-10_keyboard_10_n03085013_24648.png
dino_v8,1,244,NaN,keyboard,oven,32-10-10,0244_eid_dnn_32-10-10_oven_10_n04111531_6695.png
dino_v8,1,245,NaN,bicycle,dog,4-10-10,0245_eid_dnn_4-10-10_dog_10_n02111500_4875.png
dino_v8,1,246,NaN,keyboard,oven,32-10-10,0246_eid_dnn_32-10-10_oven_10_n04111531_13018.png
dino_v8,1,247,NaN,airplane,keyboard,128-10-10,0247_eid_dnn_128-10-10_keyboard_10_n03085013_23030.png
dino_v8,1,248,NaN,car,cat,8-10-10,0248_eid_dnn_8-10-10_cat_10_n02123045_8409.png
dino_v8,1,249,NaN,oven,bicycle,4-10-10,0249_eid_dnn_4-10-10_bicycle_10_n03792782_37777.png
dino_v8,1,250,NaN,keyboard,airplane,64-10-10,0250_eid_dnn_64-10-10_airplane_10_n02690373_614.png
dino_v8,1,251,NaN,keyboard,keyboard,128-10-10,0251_eid_dnn_128-10-10_keyboard_10_n03085013_19775.png
dino_v8,1,252,NaN,airplane,bear,8-10-10,0252_eid_dnn_8-10-10_bear_10_n02133161_1244.png
dino_v8,1,253,NaN,boat,keyboard,2-10-10,0253_eid_dnn_2-10-10_keyboard_10_n04505470_4368.png
dino_v8,1,254,NaN,car,oven,2-10-10,0254_eid_dnn_2-10-10_oven_10_n04111531_7728.png
dino_v8,1,255,NaN,airplane,clock,8-10-10,0255_eid_dnn_8-10-10_clock_10_n04548280_1.png
dino_v8,1,256,NaN,keyboard,cat,64-10-10,0256_eid_dnn_64-10-10_cat_10_n02123394_3062.png
dino_v8,1,257,NaN,bear,elephant,2-10-10,0257_eid_dnn_2-10-10_elephant_10_n02504013_466.png
dino_v8,1,258,NaN,elephant,elephant,1-10-10,0258_eid_dnn_1-10-10_elephant_10_n02504013_6275.png
dino_v8,1,259,NaN,keyboard,bird,4-10-10,0259_eid_dnn_4-10-10_bird_10_n01560419_5466.png
dino_v8,1,260,NaN,keyboard,truck,8-10-10,0260_eid_dnn_8-10-10_truck_10_n03796401_5227.png
dino_v8,1,261,NaN,bicycle,chair,2-10-10,0261_eid_dnn_2-10-10_chair_10_n04099969_25124.png
dino_v8,1,262,NaN,boat,elephant,64-10-10,0262_eid_dnn_64-10-10_elephant_10_n02504013_7209.png
dino_v8,1,263,NaN,clock,cat,1-10-10,0263_eid_dnn_1-10-10_cat_10_n02123597_4756.png
dino_v8,1,264,NaN,boat,bicycle,16-10-10,0264_eid_dnn_16-10-10_bicycle_10_n02835271_4654.png
dino_v8,1,265,NaN,bicycle,keyboard,1-10-10,0265_eid_dnn_1-10-10_keyboard_10_n04505470_2389.png
dino_v8,1,266,NaN,boat,knife,128-10-10,0266_eid_dnn_128-10-10_knife_10_n03041632_379.png
dino_v8,1,267,NaN,keyboard,clock,8-10-10,0267_eid_dnn_8-10-10_clock_10_n02708093_899.png
dino_v8,1,268,NaN,keyboard,truck,128-10-10,0268_eid_dnn_128-10-10_truck_10_n03417042_10154.png
dino_v8,1,269,NaN,airplane,bottle,2-10-10,0269_eid_dnn_2-10-10_bottle_10_n04579145_3415.png
dino_v8,1,270,NaN,keyboard,chair,16-10-10,0270_eid_dnn_16-10-10_chair_10_n02791124_146.png
dino_v8,1,271,NaN,keyboard,elephant,128-10-10,0271_eid_dnn_128-10-10_elephant_10_n02504458_2835.png
dino_v8,1,272,NaN,boat,bicycle,1-10-10,0272_eid_dnn_1-10-10_bicycle_10_n03792782_13835.png
dino_v8,1,273,NaN,boat,bicycle,32-10-10,0273_eid_dnn_32-10-10_bicycle_10_n02835271_12926.png
dino_v8,1,274,NaN,airplane,dog,2-10-10,0274_eid_dnn_2-10-10_dog_10_n02110185_11605.png
dino_v8,1,275,NaN,keyboard,elephant,128-10-10,0275_eid_dnn_128-10-10_elephant_10_n02504458_3091.png
dino_v8,1,276,NaN,airplane,chair,128-10-10,0276_eid_dnn_128-10-10_chair_10_n04099969_5233.png
dino_v8,1,277,NaN,bicycle,dog,2-10-10,0277_eid_dnn_2-10-10_dog_10_n02097209_7628.png
dino_v8,1,278,NaN,elephant,cat,8-10-10,0278_eid_dnn_8-10-10_cat_10_n02123597_10941.png
dino_v8,1,279,NaN,airplane,clock,16-10-10,0279_eid_dnn_16-10-10_clock_10_n02708093_3006.png
dino_v8,1,280,NaN,clock,truck,1-10-10,0280_eid_dnn_1-10-10_truck_10_n03796401_26620.png
dino_v8,1,281,NaN,keyboard,bear,128-10-10,0281_eid_dnn_128-10-10_bear_10_n02134418_12733.png
dino_v8,1,282,NaN,clock,knife,2-10-10,0282_eid_dnn_2-10-10_knife_10_n03041632_4806.png
dino_v8,1,283,NaN,bottle,oven,4-10-10,0283_eid_dnn_4-10-10_oven_10_n04111531_17922.png
dino_v8,1,284,NaN,boat,bottle,1-10-10,0284_eid_dnn_1-10-10_bottle_10_n04579145_6818.png
dino_v8,1,285,NaN,elephant,keyboard,4-10-10,0285_eid_dnn_4-10-10_keyboard_10_n04505470_494.png
dino_v8,1,286,NaN,airplane,cat,8-10-10,0286_eid_dnn_8-10-10_cat_10_n02123045_10834.png
dino_v8,1,287,NaN,keyboard,cat,128-10-10,0287_eid_dnn_128-10-10_cat_10_n02123394_176.png
dino_v8,1,288,NaN,car,chair,128-10-10,0288_eid_dnn_128-10-10_chair_10_n03376595_2891.png
dino_v8,1,289,NaN,cat,dog,8-10-10,0289_eid_dnn_8-10-10_dog_10_n02093256_5647.png
dino_v8,1,290,NaN,keyboard,knife,64-10-10,0290_eid_dnn_64-10-10_knife_10_n03041632_33326.png
dino_v8,1,291,NaN,knife,airplane,8-10-10,0291_eid_dnn_8-10-10_airplane_10_n02690373_2856.png
dino_v8,1,292,NaN,keyboard,bicycle,128-10-10,0292_eid_dnn_128-10-10_bicycle_10_n03792782_9651.png
dino_v8,1,293,NaN,car,bicycle,2-10-10,0293_eid_dnn_2-10-10_bicycle_10_n02835271_7438.png
dino_v8,1,294,NaN,keyboard,bicycle,128-10-10,0294_eid_dnn_128-10-10_bicycle_10_n02835271_26639.png
dino_v8,1,295,NaN,oven,keyboard,8-10-10,0295_eid_dnn_8-10-10_keyboard_10_n04505470_4458.png
dino_v8,1,296,NaN,keyboard,dog,64-10-10,0296_eid_dnn_64-10-10_dog_10_n02106662_24847.png
dino_v8,1,297,NaN,keyboard,chair,32-10-10,0297_eid_dnn_32-10-10_chair_10_n03376595_8995.png
dino_v8,1,298,NaN,keyboard,bicycle,64-10-10,0298_eid_dnn_64-10-10_bicycle_10_n03792782_6030.png
dino_v8,1,299,NaN,boat,elephant,4-10-10,0299_eid_dnn_4-10-10_elephant_10_n02504458_7258.png
dino_v8,1,300,NaN,keyboard,boat,128-10-10,0300_eid_dnn_128-10-10_boat_10_n03662601_23903.png
dino_v8,1,301,NaN,keyboard,bird,16-10-10,0301_eid_dnn_16-10-10_bird_10_n02002724_578.png
dino_v8,1,302,NaN,keyboard,chair,64-10-10,0302_eid_dnn_64-10-10_chair_10_n03376595_2393.png
dino_v8,1,303,NaN,keyboard,boat,16-10-10,0303_eid_dnn_16-10-10_boat_10_n03662601_5118.png
dino_v8,1,304,NaN,knife,chair,8-10-10,0304_eid_dnn_8-10-10_chair_10_n04429376_21845.png
dino_v8,1,305,NaN,oven,dog,8-10-10,0305_eid_dnn_8-10-10_dog_10_n02102040_2216.png
dino_v8,1,306,NaN,keyboard,airplane,8-10-10,0306_eid_dnn_8-10-10_airplane_10_n02690373_3032.png
dino_v8,1,307,NaN,oven,dog,8-10-10,0307_eid_dnn_8-10-10_dog_10_n02100735_2228.png
dino_v8,1,308,NaN,keyboard,bird,8-10-10,0308_eid_dnn_8-10-10_bird_10_n01532829_13864.png
dino_v8,1,309,NaN,knife,bird,64-10-10,0309_eid_dnn_64-10-10_bird_10_n01601694_13787.png
dino_v8,1,310,NaN,keyboard,bear,64-10-10,0310_eid_dnn_64-10-10_bear_10_n02134084_22150.png
dino_v8,1,311,NaN,keyboard,knife,16-10-10,0311_eid_dnn_16-10-10_knife_10_n03041632_29427.png
dino_v8,1,312,NaN,bicycle,chair,4-10-10,0312_eid_dnn_4-10-10_chair_10_n02791124_2804.png
dino_v8,1,313,NaN,elephant,bottle,4-10-10,0313_eid_dnn_4-10-10_bottle_10_n04591713_5046.png
dino_v8,1,314,NaN,keyboard,bicycle,128-10-10,0314_eid_dnn_128-10-10_bicycle_10_n03792782_4210.png
dino_v8,1,315,NaN,keyboard,cat,128-10-10,0315_eid_dnn_128-10-10_cat_10_n02123159_1596.png
dino_v8,1,316,NaN,airplane,car,2-10-10,0316_eid_dnn_2-10-10_car_10_n03100240_17588.png
dino_v8,1,317,NaN,keyboard,keyboard,4-10-10,0317_eid_dnn_4-10-10_keyboard_10_n03085013_23295.png
dino_v8,1,318,NaN,keyboard,oven,32-10-10,0318_eid_dnn_32-10-10_oven_10_n04111531_4879.png
dino_v8,1,319,NaN,keyboard,keyboard,32-10-10,0319_eid_dnn_32-10-10_keyboard_10_n04505470_4569.png
dino_v8,1,320,NaN,knife,truck,8-10-10,0320_eid_dnn_8-10-10_truck_10_n04467665_24190.png
dino_v8,1,321,NaN,knife,cat,4-10-10,0321_eid_dnn_4-10-10_cat_10_n02124075_15405.png
dino_v8,1,322,NaN,keyboard,knife,8-10-10,0322_eid_dnn_8-10-10_knife_10_n03041632_24817.png
dino_v8,1,323,NaN,airplane,elephant,64-10-10,0323_eid_dnn_64-10-10_elephant_10_n02504013_5505.png
dino_v8,1,324,NaN,keyboard,airplane,8-10-10,0324_eid_dnn_8-10-10_airplane_10_n02690373_8846.png
dino_v8,1,325,NaN,keyboard,truck,32-10-10,0325_eid_dnn_32-10-10_truck_10_n04467665_50806.png
dino_v8,1,326,NaN,knife,elephant,4-10-10,0326_eid_dnn_4-10-10_elephant_10_n02504458_5539.png
dino_v8,1,327,NaN,chair,boat,1-10-10,0327_eid_dnn_1-10-10_boat_10_n03344393_1178.png
dino_v8,1,328,NaN,knife,truck,4-10-10,0328_eid_dnn_4-10-10_truck_10_n04467665_10025.png
dino_v8,1,329,NaN,oven,clock,4-10-10,0329_eid_dnn_4-10-10_clock_10_n02708093_2869.png
dino_v8,1,330,NaN,keyboard,bottle,8-10-10,0330_eid_dnn_8-10-10_bottle_10_n03983396_4879.png
dino_v8,1,331,NaN,keyboard,keyboard,128-10-10,0331_eid_dnn_128-10-10_keyboard_10_n03085013_10367.png
dino_v8,1,332,NaN,keyboard,bird,64-10-10,0332_eid_dnn_64-10-10_bird_10_n01860187_21300.png
dino_v8,1,333,NaN,keyboard,knife,32-10-10,0333_eid_dnn_32-10-10_knife_10_n03041632_5302.png
dino_v8,1,334,NaN,airplane,bear,4-10-10,0334_eid_dnn_4-10-10_bear_10_n02134084_5274.png
dino_v8,1,335,NaN,knife,knife,4-10-10,0335_eid_dnn_4-10-10_knife_10_n03041632_48816.png
dino_v8,1,336,NaN,keyboard,elephant,16-10-10,0336_eid_dnn_16-10-10_elephant_10_n02504013_3295.png
dino_v8,1,337,NaN,keyboard,truck,128-10-10,0337_eid_dnn_128-10-10_truck_10_n03417042_2478.png
dino_v8,1,338,NaN,keyboard,oven,32-10-10,0338_eid_dnn_32-10-10_oven_10_n04111531_5350.png
dino_v8,1,339,NaN,elephant,airplane,8-10-10,0339_eid_dnn_8-10-10_airplane_10_n02690373_1663.png
dino_v8,1,340,NaN,keyboard,boat,4-10-10,0340_eid_dnn_4-10-10_boat_10_n03344393_1422.png
dino_v8,1,341,NaN,car,cat,32-10-10,0341_eid_dnn_32-10-10_cat_10_n02123159_3312.png
dino_v8,1,342,NaN,keyboard,chair,64-10-10,0342_eid_dnn_64-10-10_chair_10_n03376595_6171.png
dino_v8,1,343,NaN,oven,bottle,8-10-10,0343_eid_dnn_8-10-10_bottle_10_n04591713_1616.png
dino_v8,1,344,NaN,keyboard,bear,128-10-10,0344_eid_dnn_128-10-10_bear_10_n02133161_1197.png
dino_v8,1,345,NaN,airplane,truck,4-10-10,0345_eid_dnn_4-10-10_truck_10_n04467665_663.png
dino_v8,1,346,NaN,airplane,bear,4-10-10,0346_eid_dnn_4-10-10_bear_10_n02132136_2771.png
dino_v8,1,347,NaN,keyboard,cat,16-10-10,0347_eid_dnn_16-10-10_cat_10_n02123394_12.png
dino_v8,1,348,NaN,keyboard,car,8-10-10,0348_eid_dnn_8-10-10_car_10_n04285008_1795.png
dino_v8,1,349,NaN,airplane,boat,4-10-10,0349_eid_dnn_4-10-10_boat_10_n04273569_1023.png
dino_v8,1,350,NaN,knife,boat,1-10-10,0350_eid_dnn_1-10-10_boat_10_n03662601_21775.png
dino_v8,1,351,NaN,elephant,clock,1-10-10,0351_eid_dnn_1-10-10_clock_10_n03196217_71.png
dino_v8,1,352,NaN,oven,keyboard,4-10-10,0352_eid_dnn_4-10-10_keyboard_10_n04505470_3122.png
dino_v8,1,353,NaN,keyboard,dog,32-10-10,0353_eid_dnn_32-10-10_dog_10_n02099849_4640.png
dino_v8,1,354,NaN,bottle,bottle,64-10-10,0354_eid_dnn_64-10-10_bottle_10_n02823428_6418.png
dino_v8,1,355,NaN,keyboard,car,8-10-10,0355_eid_dnn_8-10-10_car_10_n04285008_11704.png
dino_v8,1,356,NaN,oven,clock,32-10-10,0356_eid_dnn_32-10-10_clock_10_n02708093_3544.png
dino_v8,1,357,NaN,keyboard,clock,8-10-10,0357_eid_dnn_8-10-10_clock_10_n04548280_4599.png
dino_v8,1,358,NaN,keyboard,car,128-10-10,0358_eid_dnn_128-10-10_car_10_n03100240_6259.png
dino_v8,1,359,NaN,elephant,boat,8-10-10,0359_eid_dnn_8-10-10_boat_10_n04273569_3401.png
dino_v8,1,360,NaN,keyboard,truck,64-10-10,0360_eid_dnn_64-10-10_truck_10_n04467665_13898.png
dino_v8,1,361,NaN,elephant,clock,2-10-10,0361_eid_dnn_2-10-10_clock_10_n03196217_1499.png
dino_v8,1,362,NaN,airplane,car,4-10-10,0362_eid_dnn_4-10-10_car_10_n03100240_8702.png
dino_v8,1,363,NaN,truck,bear,4-10-10,0363_eid_dnn_4-10-10_bear_10_n02134418_1770.png
dino_v8,1,364,NaN,airplane,bear,16-10-10,0364_eid_dnn_16-10-10_bear_10_n02132136_32838.png
dino_v8,1,365,NaN,keyboard,truck,4-10-10,0365_eid_dnn_4-10-10_truck_10_n04467665_68331.png
dino_v8,1,366,NaN,cat,airplane,1-10-10,0366_eid_dnn_1-10-10_airplane_10_n02690373_4506.png
dino_v8,1,367,NaN,airplane,car,2-10-10,0367_eid_dnn_2-10-10_car_10_n03100240_5308.png
dino_v8,1,368,NaN,airplane,cat,2-10-10,0368_eid_dnn_2-10-10_cat_10_n02124075_15345.png
dino_v8,1,369,NaN,keyboard,bicycle,128-10-10,0369_eid_dnn_128-10-10_bicycle_10_n03792782_50972.png
dino_v8,1,370,NaN,airplane,knife,8-10-10,0370_eid_dnn_8-10-10_knife_10_n03041632_19098.png
dino_v8,1,371,NaN,keyboard,bottle,128-10-10,0371_eid_dnn_128-10-10_bottle_10_n04560804_15963.png
dino_v8,1,372,NaN,knife,bottle,8-10-10,0372_eid_dnn_8-10-10_bottle_10_n04557648_7809.png
dino_v8,1,373,NaN,cat,airplane,1-10-10,0373_eid_dnn_1-10-10_airplane_10_n02690373_17764.png
dino_v8,1,374,NaN,keyboard,elephant,64-10-10,0374_eid_dnn_64-10-10_elephant_10_n02504013_7322.png
dino_v8,1,375,NaN,airplane,bear,2-10-10,0375_eid_dnn_2-10-10_bear_10_n02134084_2959.png
dino_v8,1,376,NaN,oven,bird,2-10-10,0376_eid_dnn_2-10-10_bird_10_n01622779_6563.png
dino_v8,1,377,NaN,keyboard,knife,16-10-10,0377_eid_dnn_16-10-10_knife_10_n03041632_19620.png
dino_v8,1,378,NaN,airplane,bird,4-10-10,0378_eid_dnn_4-10-10_bird_10_n01530575_35977.png
dino_v8,1,379,NaN,knife,cat,128-10-10,0379_eid_dnn_128-10-10_cat_10_n02123394_1757.png
dino_v8,1,380,NaN,airplane,dog,2-10-10,0380_eid_dnn_2-10-10_dog_10_n02093647_6358.png
dino_v8,1,381,NaN,chair,boat,1-10-10,0381_eid_dnn_1-10-10_boat_10_n02951358_1470.png
dino_v8,1,382,NaN,keyboard,elephant,128-10-10,0382_eid_dnn_128-10-10_elephant_10_n02504458_2026.png
dino_v8,1,383,NaN,keyboard,elephant,32-10-10,0383_eid_dnn_32-10-10_elephant_10_n02504458_3730.png
dino_v8,1,384,NaN,bear,keyboard,8-10-10,0384_eid_dnn_8-10-10_keyboard_10_n03085013_20881.png
dino_v8,1,385,NaN,bicycle,dog,4-10-10,0385_eid_dnn_4-10-10_dog_10_n02105641_8188.png
dino_v8,1,386,NaN,keyboard,clock,32-10-10,0386_eid_dnn_32-10-10_clock_10_n03196217_6320.png
dino_v8,1,387,NaN,keyboard,car,32-10-10,0387_eid_dnn_32-10-10_car_10_n04285008_12333.png
dino_v8,1,388,NaN,keyboard,knife,2-10-10,0388_eid_dnn_2-10-10_knife_10_n03041632_47743.png
dino_v8,1,389,NaN,knife,boat,8-10-10,0389_eid_dnn_8-10-10_boat_10_n04612504_8073.png
dino_v8,1,390,NaN,airplane,knife,128-10-10,0390_eid_dnn_128-10-10_knife_10_n03041632_20770.png
dino_v8,1,391,NaN,keyboard,car,32-10-10,0391_eid_dnn_32-10-10_car_10_n02814533_28783.png
dino_v8,1,392,NaN,oven,car,128-10-10,0392_eid_dnn_128-10-10_car_10_n02814533_13533.png
dino_v8,1,393,NaN,bear,dog,16-10-10,0393_eid_dnn_16-10-10_dog_10_n02104029_8137.png
dino_v8,1,394,NaN,cat,bicycle,4-10-10,0394_eid_dnn_4-10-10_bicycle_10_n02835271_3990.png
dino_v8,1,395,NaN,airplane,bear,4-10-10,0395_eid_dnn_4-10-10_bear_10_n02132136_24311.png
dino_v8,1,396,NaN,clock,truck,2-10-10,0396_eid_dnn_2-10-10_truck_10_n03796401_6966.png
dino_v8,1,397,NaN,knife,knife,1-10-10,0397_eid_dnn_1-10-10_knife_10_n03041632_8468.png
dino_v8,1,398,NaN,keyboard,elephant,128-10-10,0398_eid_dnn_128-10-10_elephant_10_n02504458_6799.png
dino_v8,1,399,NaN,knife,keyboard,16-10-10,0399_eid_dnn_16-10-10_keyboard_10_n03085013_24402.png
dino_v8,1,400,NaN,keyboard,knife,16-10-10,0400_eid_dnn_16-10-10_knife_10_n03041632_25772.png
dino_v8,1,401,NaN,keyboard,elephant,32-10-10,0401_eid_dnn_32-10-10_elephant_10_n02504458_5839.png
dino_v8,1,402,NaN,keyboard,elephant,64-10-10,0402_eid_dnn_64-10-10_elephant_10_n02504458_5178.png
dino_v8,1,403,NaN,airplane,bicycle,32-10-10,0403_eid_dnn_32-10-10_bicycle_10_n02835271_27014.png
dino_v8,1,404,NaN,boat,car,128-10-10,0404_eid_dnn_128-10-10_car_10_n04285008_15218.png
dino_v8,1,405,NaN,keyboard,bicycle,8-10-10,0405_eid_dnn_8-10-10_bicycle_10_n02835271_19955.png
dino_v8,1,406,NaN,knife,truck,1-10-10,0406_eid_dnn_1-10-10_truck_10_n03796401_874.png
dino_v8,1,407,NaN,airplane,dog,2-10-10,0407_eid_dnn_2-10-10_dog_10_n02108915_6092.png
dino_v8,1,408,NaN,car,clock,16-10-10,0408_eid_dnn_16-10-10_clock_10_n04548280_6337.png
dino_v8,1,409,NaN,elephant,boat,4-10-10,0409_eid_dnn_4-10-10_boat_10_n04273569_1388.png
dino_v8,1,410,NaN,keyboard,clock,64-10-10,0410_eid_dnn_64-10-10_clock_10_n02708093_2676.png
dino_v8,1,411,NaN,keyboard,dog,64-10-10,0411_eid_dnn_64-10-10_dog_10_n02107683_5424.png
dino_v8,1,412,NaN,airplane,chair,1-10-10,0412_eid_dnn_1-10-10_chair_10_n04099969_29038.png
dino_v8,1,413,NaN,keyboard,clock,16-10-10,0413_eid_dnn_16-10-10_clock_10_n04548280_3219.png
dino_v8,1,414,NaN,keyboard,clock,32-10-10,0414_eid_dnn_32-10-10_clock_10_n03196217_8282.png
dino_v8,1,415,NaN,keyboard,oven,8-10-10,0415_eid_dnn_8-10-10_oven_10_n04111531_22041.png
dino_v8,1,416,NaN,keyboard,bear,8-10-10,0416_eid_dnn_8-10-10_bear_10_n02134084_6964.png
dino_v8,1,417,NaN,keyboard,bicycle,64-10-10,0417_eid_dnn_64-10-10_bicycle_10_n03792782_11921.png
dino_v8,1,418,NaN,clock,clock,8-10-10,0418_eid_dnn_8-10-10_clock_10_n04548280_1809.png
dino_v8,1,419,NaN,keyboard,bird,4-10-10,0419_eid_dnn_4-10-10_bird_10_n01833805_202.png
dino_v8,1,420,NaN,keyboard,keyboard,64-10-10,0420_eid_dnn_64-10-10_keyboard_10_n03085013_7511.png
dino_v8,1,421,NaN,keyboard,bird,1-10-10,0421_eid_dnn_1-10-10_bird_10_n02025239_5287.png
dino_v8,1,422,NaN,keyboard,boat,64-10-10,0422_eid_dnn_64-10-10_boat_10_n03662601_27960.png
dino_v8,1,423,NaN,boat,bottle,1-10-10,0423_eid_dnn_1-10-10_bottle_10_n04591713_6855.png
dino_v8,1,424,NaN,bottle,elephant,128-10-10,0424_eid_dnn_128-10-10_elephant_10_n02504013_4424.png
dino_v8,1,425,NaN,bear,clock,2-10-10,0425_eid_dnn_2-10-10_clock_10_n04548280_3295.png
dino_v8,1,426,NaN,boat,airplane,1-10-10,0426_eid_dnn_1-10-10_airplane_10_n02690373_6144.png
dino_v8,1,427,NaN,airplane,truck,32-10-10,0427_eid_dnn_32-10-10_truck_10_n04467665_70894.png
dino_v8,1,428,NaN,keyboard,boat,128-10-10,0428_eid_dnn_128-10-10_boat_10_n02951358_30474.png
dino_v8,1,429,NaN,airplane,bear,4-10-10,0429_eid_dnn_4-10-10_bear_10_n02132136_6434.png
dino_v8,1,430,NaN,knife,keyboard,32-10-10,0430_eid_dnn_32-10-10_keyboard_10_n04505470_5009.png
dino_v8,1,431,NaN,chair,keyboard,2-10-10,0431_eid_dnn_2-10-10_keyboard_10_n03085013_13005.png
dino_v8,1,432,NaN,bicycle,chair,1-10-10,0432_eid_dnn_1-10-10_chair_10_n03376595_6865.png
dino_v8,1,433,NaN,keyboard,bicycle,32-10-10,0433_eid_dnn_32-10-10_bicycle_10_n02835271_6122.png
dino_v8,1,434,NaN,elephant,oven,4-10-10,0434_eid_dnn_4-10-10_oven_10_n04111531_11499.png
dino_v8,1,435,NaN,keyboard,bird,1-10-10,0435_eid_dnn_1-10-10_bird_10_n02009229_5765.png
dino_v8,1,436,NaN,keyboard,bottle,32-10-10,0436_eid_dnn_32-10-10_bottle_10_n04560804_2181.png
dino_v8,1,437,NaN,keyboard,bicycle,32-10-10,0437_eid_dnn_32-10-10_bicycle_10_n03792782_3774.png
dino_v8,1,438,NaN,keyboard,bird,16-10-10,0438_eid_dnn_16-10-10_bird_10_n01614925_1683.png
dino_v8,1,439,NaN,elephant,clock,8-10-10,0439_eid_dnn_8-10-10_clock_10_n02708093_4692.png
dino_v8,1,440,NaN,keyboard,dog,4-10-10,0440_eid_dnn_4-10-10_dog_10_n02109961_71298.png
dino_v8,1,441,NaN,elephant,keyboard,2-10-10,0441_eid_dnn_2-10-10_keyboard_10_n03085013_23269.png
dino_v8,1,442,NaN,airplane,elephant,2-10-10,0442_eid_dnn_2-10-10_elephant_10_n02504458_5614.png
dino_v8,1,443,NaN,elephant,car,2-10-10,0443_eid_dnn_2-10-10_car_10_n04285008_4640.png
dino_v8,1,444,NaN,keyboard,oven,128-10-10,0444_eid_dnn_128-10-10_oven_10_n04111531_6346.png
dino_v8,1,445,NaN,keyboard,chair,2-10-10,0445_eid_dnn_2-10-10_chair_10_n04099969_14851.png
dino_v8,1,446,NaN,keyboard,bird,64-10-10,0446_eid_dnn_64-10-10_bird_10_n02051845_534.png
dino_v8,1,447,NaN,airplane,bird,128-10-10,0447_eid_dnn_128-10-10_bird_10_n02056570_9342.png
dino_v8,1,448,NaN,keyboard,oven,16-10-10,0448_eid_dnn_16-10-10_oven_10_n04111531_4900.png
dino_v8,1,449,NaN,keyboard,boat,32-10-10,0449_eid_dnn_32-10-10_boat_10_n02951358_31973.png
dino_v8,1,450,NaN,airplane,keyboard,4-10-10,0450_eid_dnn_4-10-10_keyboard_10_n03085013_19842.png
dino_v8,1,451,NaN,keyboard,keyboard,8-10-10,0451_eid_dnn_8-10-10_keyboard_10_n03085013_8296.png
dino_v8,1,452,NaN,keyboard,car,16-10-10,0452_eid_dnn_16-10-10_car_10_n03100240_3528.png
dino_v8,1,453,NaN,airplane,cat,8-10-10,0453_eid_dnn_8-10-10_cat_10_n02123159_7210.png
dino_v8,1,454,NaN,keyboard,knife,16-10-10,0454_eid_dnn_16-10-10_knife_10_n03041632_56172.png
dino_v8,1,455,NaN,car,oven,4-10-10,0455_eid_dnn_4-10-10_oven_10_n04111531_2116.png
dino_v8,1,456,NaN,knife,bicycle,8-10-10,0456_eid_dnn_8-10-10_bicycle_10_n02835271_12477.png
dino_v8,1,457,NaN,bottle,knife,2-10-10,0457_eid_dnn_2-10-10_knife_10_n03041632_42472.png
dino_v8,1,458,NaN,clock,oven,2-10-10,0458_eid_dnn_2-10-10_oven_10_n04111531_8818.png
dino_v8,1,459,NaN,oven,truck,2-10-10,0459_eid_dnn_2-10-10_truck_10_n04467665_67115.png
dino_v8,1,460,NaN,boat,bird,4-10-10,0460_eid_dnn_4-10-10_bird_10_n02011460_3521.png
dino_v8,1,461,NaN,airplane,bear,64-10-10,0461_eid_dnn_64-10-10_bear_10_n02133161_3533.png
dino_v8,1,462,NaN,keyboard,bird,8-10-10,0462_eid_dnn_8-10-10_bird_10_n02013706_637.png
dino_v8,1,463,NaN,keyboard,bear,64-10-10,0463_eid_dnn_64-10-10_bear_10_n02132136_29636.png
dino_v8,1,464,NaN,cat,bicycle,2-10-10,0464_eid_dnn_2-10-10_bicycle_10_n02835271_634.png
dino_v8,1,465,NaN,chair,keyboard,1-10-10,0465_eid_dnn_1-10-10_keyboard_10_n04505470_4621.png
dino_v8,1,466,NaN,oven,bear,16-10-10,0466_eid_dnn_16-10-10_bear_10_n02134084_2844.png
dino_v8,1,467,NaN,elephant,bicycle,4-10-10,0467_eid_dnn_4-10-10_bicycle_10_n03792782_17088.png
dino_v8,1,468,NaN,airplane,clock,4-10-10,0468_eid_dnn_4-10-10_clock_10_n03196217_8706.png
dino_v8,1,469,NaN,elephant,oven,4-10-10,0469_eid_dnn_4-10-10_oven_10_n04111531_15052.png
dino_v8,1,470,NaN,keyboard,bottle,16-10-10,0470_eid_dnn_16-10-10_bottle_10_n04560804_5769.png
dino_v8,1,471,NaN,keyboard,dog,128-10-10,0471_eid_dnn_128-10-10_dog_10_n02110063_14116.png
dino_v8,1,472,NaN,airplane,cat,32-10-10,0472_eid_dnn_32-10-10_cat_10_n02124075_3609.png
dino_v8,1,473,NaN,airplane,airplane,32-10-10,0473_eid_dnn_32-10-10_airplane_10_n02690373_10926.png
dino_v8,1,474,NaN,keyboard,bird,16-10-10,0474_eid_dnn_16-10-10_bird_10_n02033041_7229.png
dino_v8,1,475,NaN,chair,bird,2-10-10,0475_eid_dnn_2-10-10_bird_10_n02006656_611.png
dino_v8,1,476,NaN,keyboard,bear,16-10-10,0476_eid_dnn_16-10-10_bear_10_n02133161_958.png
dino_v8,1,477,NaN,keyboard,bird,8-10-10,0477_eid_dnn_8-10-10_bird_10_n01843065_148.png
dino_v8,1,478,NaN,keyboard,cat,32-10-10,0478_eid_dnn_32-10-10_cat_10_n02123597_13623.png
dino_v8,1,479,NaN,keyboard,bicycle,8-10-10,0479_eid_dnn_8-10-10_bicycle_10_n02835271_12957.png
dino_v8,1,480,NaN,oven,knife,8-10-10,0480_eid_dnn_8-10-10_knife_10_n03041632_96714.png
dino_v8,1,481,NaN,keyboard,bear,128-10-10,0481_eid_dnn_128-10-10_bear_10_n02133161_3550.png
dino_v8,1,482,NaN,keyboard,airplane,2-10-10,0482_eid_dnn_2-10-10_airplane_10_n02690373_4471.png
dino_v8,1,483,NaN,airplane,airplane,64-10-10,0483_eid_dnn_64-10-10_airplane_10_n02690373_2026.png
dino_v8,1,484,NaN,airplane,car,1-10-10,0484_eid_dnn_1-10-10_car_10_n03100240_18270.png
dino_v8,1,485,NaN,knife,elephant,128-10-10,0485_eid_dnn_128-10-10_elephant_10_n02504458_5204.png
dino_v8,1,486,NaN,airplane,oven,1-10-10,0486_eid_dnn_1-10-10_oven_10_n04111531_10339.png
dino_v8,1,487,NaN,keyboard,elephant,2-10-10,0487_eid_dnn_2-10-10_elephant_10_n02504458_12705.png
dino_v8,1,488,NaN,keyboard,boat,1-10-10,0488_eid_dnn_1-10-10_boat_10_n03344393_9268.png
dino_v8,1,489,NaN,keyboard,bicycle,16-10-10,0489_eid_dnn_16-10-10_bicycle_10_n02835271_23173.png
dino_v8,1,490,NaN,keyboard,knife,32-10-10,0490_eid_dnn_32-10-10_knife_10_n03041632_43975.png
dino_v8,1,491,NaN,keyboard,bicycle,128-10-10,0491_eid_dnn_128-10-10_bicycle_10_n03792782_3299.png
dino_v8,1,492,NaN,keyboard,boat,32-10-10,0492_eid_dnn_32-10-10_boat_10_n04273569_5679.png
dino_v8,1,493,NaN,keyboard,bird,32-10-10,0493_eid_dnn_32-10-10_bird_10_n02056570_10127.png
dino_v8,1,494,NaN,keyboard,bear,32-10-10,0494_eid_dnn_32-10-10_bear_10_n02133161_7688.png
dino_v8,1,495,NaN,airplane,cat,16-10-10,0495_eid_dnn_16-10-10_cat_10_n02123597_624.png
dino_v8,1,496,NaN,keyboard,bird,64-10-10,0496_eid_dnn_64-10-10_bird_10_n01560419_3399.png
dino_v8,1,497,NaN,airplane,cat,32-10-10,0497_eid_dnn_32-10-10_cat_10_n02123045_12762.png
dino_v8,1,498,NaN,keyboard,car,16-10-10,0498_eid_dnn_16-10-10_car_10_n02814533_7247.png
dino_v8,1,499,NaN,elephant,keyboard,4-10-10,0499_eid_dnn_4-10-10_keyboard_10_n03085013_4941.png
dino_v8,1,500,NaN,car,truck,4-10-10,0500_eid_dnn_4-10-10_truck_10_n03417042_6420.png
dino_v8,1,501,NaN,keyboard,boat,64-10-10,0501_eid_dnn_64-10-10_boat_10_n03662601_2120.png
dino_v8,1,502,NaN,airplane,bear,2-10-10,0502_eid_dnn_2-10-10_bear_10_n02134084_7331.png
dino_v8,1,503,NaN,keyboard,bottle,32-10-10,0503_eid_dnn_32-10-10_bottle_10_n02823428_906.png
dino_v8,1,504,NaN,keyboard,cat,16-10-10,0504_eid_dnn_16-10-10_cat_10_n02123394_270.png
dino_v8,1,505,NaN,clock,boat,2-10-10,0505_eid_dnn_2-10-10_boat_10_n02951358_1910.png
dino_v8,1,506,NaN,elephant,knife,4-10-10,0506_eid_dnn_4-10-10_knife_10_n03041632_23678.png
dino_v8,1,507,NaN,keyboard,car,16-10-10,0507_eid_dnn_16-10-10_car_10_n02814533_31083.png
dino_v8,1,508,NaN,chair,keyboard,1-10-10,0508_eid_dnn_1-10-10_keyboard_10_n04505470_2881.png
dino_v8,1,509,NaN,knife,cat,8-10-10,0509_eid_dnn_8-10-10_cat_10_n02125311_2923.png
dino_v8,1,510,NaN,car,bicycle,2-10-10,0510_eid_dnn_2-10-10_bicycle_10_n03792782_2598.png
dino_v8,1,511,NaN,clock,car,2-10-10,0511_eid_dnn_2-10-10_car_10_n03100240_4460.png
dino_v8,1,512,NaN,airplane,knife,4-10-10,0512_eid_dnn_4-10-10_knife_10_n03041632_29920.png
dino_v8,1,513,NaN,keyboard,bird,32-10-10,0513_eid_dnn_32-10-10_bird_10_n01796340_3845.png
dino_v8,1,514,NaN,keyboard,keyboard,8-10-10,0514_eid_dnn_8-10-10_keyboard_10_n03085013_21932.png
dino_v8,1,515,NaN,bear,bottle,1-10-10,0515_eid_dnn_1-10-10_bottle_10_n02823428_64.png
dino_v8,1,516,NaN,airplane,chair,8-10-10,0516_eid_dnn_8-10-10_chair_10_n04099969_4374.png
dino_v8,1,517,NaN,bear,clock,1-10-10,0517_eid_dnn_1-10-10_clock_10_n02708093_8257.png
dino_v8,1,518,NaN,airplane,knife,16-10-10,0518_eid_dnn_16-10-10_knife_10_n03041632_45569.png
dino_v8,1,519,NaN,keyboard,chair,128-10-10,0519_eid_dnn_128-10-10_chair_10_n04099969_1850.png
dino_v8,1,520,NaN,boat,dog,2-10-10,0520_eid_dnn_2-10-10_dog_10_n02092002_2008.png
dino_v8,1,521,NaN,boat,bicycle,8-10-10,0521_eid_dnn_8-10-10_bicycle_10_n02835271_8105.png
dino_v8,1,522,NaN,airplane,oven,64-10-10,0522_eid_dnn_64-10-10_oven_10_n04111531_14126.png
dino_v8,1,523,NaN,bicycle,elephant,4-10-10,0523_eid_dnn_4-10-10_elephant_10_n02504013_13766.png
dino_v8,1,524,NaN,keyboard,bicycle,64-10-10,0524_eid_dnn_64-10-10_bicycle_10_n02835271_18361.png
dino_v8,1,525,NaN,keyboard,bird,8-10-10,0525_eid_dnn_8-10-10_bird_10_n01582220_4708.png
dino_v8,1,526,NaN,keyboard,chair,16-10-10,0526_eid_dnn_16-10-10_chair_10_n04099969_101.png
dino_v8,1,527,NaN,airplane,cat,1-10-10,0527_eid_dnn_1-10-10_cat_10_n02124075_724.png
dino_v8,1,528,NaN,knife,bicycle,32-10-10,0528_eid_dnn_32-10-10_bicycle_10_n02835271_43.png
dino_v8,1,529,NaN,cat,bird,2-10-10,0529_eid_dnn_2-10-10_bird_10_n02017213_5362.png
dino_v8,1,530,NaN,elephant,dog,1-10-10,0530_eid_dnn_1-10-10_dog_10_n02088466_1769.png
dino_v8,1,531,NaN,airplane,bear,1-10-10,0531_eid_dnn_1-10-10_bear_10_n02133161_5653.png
dino_v8,1,532,NaN,chair,dog,1-10-10,0532_eid_dnn_1-10-10_dog_10_n02098105_4676.png
dino_v8,1,533,NaN,airplane,cat,2-10-10,0533_eid_dnn_2-10-10_cat_10_n02123045_3593.png
dino_v8,1,534,NaN,oven,bottle,8-10-10,0534_eid_dnn_8-10-10_bottle_10_n04560804_265.png
dino_v8,1,535,NaN,knife,knife,128-10-10,0535_eid_dnn_128-10-10_knife_10_n03041632_1556.png
dino_v8,1,536,NaN,bicycle,chair,4-10-10,0536_eid_dnn_4-10-10_chair_10_n02791124_9595.png
dino_v8,1,537,NaN,keyboard,dog,32-10-10,0537_eid_dnn_32-10-10_dog_10_n02107312_2933.png
dino_v8,1,538,NaN,keyboard,oven,32-10-10,0538_eid_dnn_32-10-10_oven_10_n04111531_101.png
dino_v8,1,539,NaN,oven,truck,4-10-10,0539_eid_dnn_4-10-10_truck_10_n03417042_7204.png
dino_v8,1,540,NaN,keyboard,bear,64-10-10,0540_eid_dnn_64-10-10_bear_10_n02132136_2120.png
dino_v8,1,541,NaN,keyboard,airplane,64-10-10,0541_eid_dnn_64-10-10_airplane_10_n02690373_18412.png
dino_v8,1,542,NaN,car,knife,128-10-10,0542_eid_dnn_128-10-10_knife_10_n03041632_21017.png
dino_v8,1,543,NaN,keyboard,elephant,128-10-10,0543_eid_dnn_128-10-10_elephant_10_n02504458_8414.png
dino_v8,1,544,NaN,keyboard,bottle,128-10-10,0544_eid_dnn_128-10-10_bottle_10_n04557648_11046.png
dino_v8,1,545,NaN,keyboard,clock,64-10-10,0545_eid_dnn_64-10-10_clock_10_n03196217_10578.png
dino_v8,1,546,NaN,keyboard,bear,2-10-10,0546_eid_dnn_2-10-10_bear_10_n02134418_3213.png
dino_v8,1,547,NaN,keyboard,clock,64-10-10,0547_eid_dnn_64-10-10_clock_10_n03196217_6289.png
dino_v8,1,548,NaN,keyboard,dog,32-10-10,0548_eid_dnn_32-10-10_dog_10_n02096294_1498.png
dino_v8,1,549,NaN,airplane,oven,16-10-10,0549_eid_dnn_16-10-10_oven_10_n04111531_519.png
dino_v8,1,550,NaN,chair,bird,1-10-10,0550_eid_dnn_1-10-10_bird_10_n01531178_14959.png
dino_v8,1,551,NaN,keyboard,bear,32-10-10,0551_eid_dnn_32-10-10_bear_10_n02132136_8754.png
dino_v8,1,552,NaN,airplane,car,1-10-10,0552_eid_dnn_1-10-10_car_10_n02814533_73067.png
dino_v8,1,553,NaN,oven,cat,8-10-10,0553_eid_dnn_8-10-10_cat_10_n02124075_15378.png
dino_v8,1,554,NaN,keyboard,bird,128-10-10,0554_eid_dnn_128-10-10_bird_10_n01592084_7569.png
dino_v8,1,555,NaN,keyboard,dog,128-10-10,0555_eid_dnn_128-10-10_dog_10_n02094114_3395.png
dino_v8,1,556,NaN,knife,chair,4-10-10,0556_eid_dnn_4-10-10_chair_10_n03376595_1712.png
dino_v8,1,557,NaN,keyboard,bear,64-10-10,0557_eid_dnn_64-10-10_bear_10_n02134084_622.png
dino_v8,1,558,NaN,oven,clock,8-10-10,0558_eid_dnn_8-10-10_clock_10_n03196217_4912.png
dino_v8,1,559,NaN,keyboard,car,64-10-10,0559_eid_dnn_64-10-10_car_10_n03100240_18815.png
dino_v8,1,560,NaN,bicycle,chair,2-10-10,0560_eid_dnn_2-10-10_chair_10_n04099969_2020.png
dino_v8,1,561,NaN,airplane,bear,1-10-10,0561_eid_dnn_1-10-10_bear_10_n02132136_7647.png
dino_v8,1,562,NaN,keyboard,oven,128-10-10,0562_eid_dnn_128-10-10_oven_10_n04111531_2796.png
dino_v8,1,563,NaN,keyboard,truck,64-10-10,0563_eid_dnn_64-10-10_truck_10_n03796401_9472.png
dino_v8,1,564,NaN,keyboard,chair,4-10-10,0564_eid_dnn_4-10-10_chair_10_n03376595_12433.png
dino_v8,1,565,NaN,airplane,truck,4-10-10,0565_eid_dnn_4-10-10_truck_10_n04467665_31539.png
dino_v8,1,566,NaN,keyboard,airplane,32-10-10,0566_eid_dnn_32-10-10_airplane_10_n02690373_10657.png
dino_v8,1,567,NaN,keyboard,truck,16-10-10,0567_eid_dnn_16-10-10_truck_10_n03796401_5963.png
dino_v8,1,568,NaN,keyboard,dog,64-10-10,0568_eid_dnn_64-10-10_dog_10_n02096294_2233.png
dino_v8,1,569,NaN,keyboard,airplane,128-10-10,0569_eid_dnn_128-10-10_airplane_10_n02690373_4873.png
dino_v8,1,570,NaN,oven,truck,1-10-10,0570_eid_dnn_1-10-10_truck_10_n04467665_4825.png
dino_v8,1,571,NaN,keyboard,chair,16-10-10,0571_eid_dnn_16-10-10_chair_10_n04099969_1704.png
dino_v8,1,572,NaN,car,bicycle,2-10-10,0572_eid_dnn_2-10-10_bicycle_10_n02835271_1573.png
dino_v8,1,573,NaN,elephant,boat,2-10-10,0573_eid_dnn_2-10-10_boat_10_n04273569_12725.png
dino_v8,1,574,NaN,airplane,knife,128-10-10,0574_eid_dnn_128-10-10_knife_10_n03041632_11285.png
dino_v8,1,575,NaN,airplane,clock,4-10-10,0575_eid_dnn_4-10-10_clock_10_n03196217_8254.png
dino_v8,1,576,NaN,keyboard,knife,16-10-10,0576_eid_dnn_16-10-10_knife_10_n03041632_15099.png
dino_v8,1,577,NaN,knife,cat,64-10-10,0577_eid_dnn_64-10-10_cat_10_n02125311_30452.png
dino_v8,1,578,NaN,keyboard,bottle,32-10-10,0578_eid_dnn_32-10-10_bottle_10_n04591713_6804.png
dino_v8,1,579,NaN,airplane,dog,64-10-10,0579_eid_dnn_64-10-10_dog_10_n02088364_14369.png
dino_v8,1,580,NaN,keyboard,truck,32-10-10,0580_eid_dnn_32-10-10_truck_10_n03796401_16425.png
dino_v8,1,581,NaN,keyboard,truck,64-10-10,0581_eid_dnn_64-10-10_truck_10_n03417042_5406.png
dino_v8,1,582,NaN,airplane,knife,1-10-10,0582_eid_dnn_1-10-10_knife_10_n03041632_52929.png
dino_v8,1,583,NaN,airplane,chair,64-10-10,0583_eid_dnn_64-10-10_chair_10_n03376595_4820.png
dino_v8,1,584,NaN,bear,chair,1-10-10,0584_eid_dnn_1-10-10_chair_10_n03376595_787.png
dino_v8,1,585,NaN,bicycle,chair,2-10-10,0585_eid_dnn_2-10-10_chair_10_n03376595_7709.png
dino_v8,1,586,NaN,keyboard,bottle,1-10-10,0586_eid_dnn_1-10-10_bottle_10_n03983396_11006.png
dino_v8,1,587,NaN,keyboard,oven,8-10-10,0587_eid_dnn_8-10-10_oven_10_n04111531_458.png
dino_v8,1,588,NaN,airplane,cat,128-10-10,0588_eid_dnn_128-10-10_cat_10_n02123045_7829.png
dino_v8,1,589,NaN,airplane,bear,1-10-10,0589_eid_dnn_1-10-10_bear_10_n02134418_4685.png
dino_v8,1,590,NaN,keyboard,knife,64-10-10,0590_eid_dnn_64-10-10_knife_10_n03041632_1964.png
dino_v8,1,591,NaN,airplane,car,4-10-10,0591_eid_dnn_4-10-10_car_10_n03100240_17472.png
dino_v8,1,592,NaN,keyboard,dog,16-10-10,0592_eid_dnn_16-10-10_dog_10_n02113023_1980.png
dino_v8,1,593,NaN,keyboard,dog,32-10-10,0593_eid_dnn_32-10-10_dog_10_n02100735_6359.png
dino_v8,1,594,NaN,car,knife,1-10-10,0594_eid_dnn_1-10-10_knife_10_n03041632_31849.png
dino_v8,1,595,NaN,keyboard,bird,8-10-10,0595_eid_dnn_8-10-10_bird_10_n01532829_23378.png
dino_v8,1,596,NaN,keyboard,clock,64-10-10,0596_eid_dnn_64-10-10_clock_10_n02708093_5127.png
dino_v8,1,597,NaN,airplane,bear,4-10-10,0597_eid_dnn_4-10-10_bear_10_n02134084_12148.png
dino_v8,1,598,NaN,keyboard,elephant,4-10-10,0598_eid_dnn_4-10-10_elephant_10_n02504458_63.png
dino_v8,1,599,NaN,bicycle,dog,2-10-10,0599_eid_dnn_2-10-10_dog_10_n02108551_13160.png
dino_v8,1,600,NaN,cat,bicycle,2-10-10,0600_eid_dnn_2-10-10_bicycle_10_n02835271_3215.png
dino_v8,1,601,NaN,keyboard,bicycle,16-10-10,0601_eid_dnn_16-10-10_bicycle_10_n03792782_14216.png
dino_v8,1,602,NaN,cat,bicycle,2-10-10,0602_eid_dnn_2-10-10_bicycle_10_n03792782_25352.png
dino_v8,1,603,NaN,airplane,boat,128-10-10,0603_eid_dnn_128-10-10_boat_10_n04273569_1482.png
dino_v8,1,604,NaN,airplane,car,2-10-10,0604_eid_dnn_2-10-10_car_10_n02814533_59053.png
dino_v8,1,605,NaN,keyboard,airplane,128-10-10,0605_eid_dnn_128-10-10_airplane_10_n02690373_10462.png
dino_v8,1,606,NaN,bottle,bottle,8-10-10,0606_eid_dnn_8-10-10_bottle_10_n04560804_15379.png
dino_v8,1,607,NaN,keyboard,chair,16-10-10,0607_eid_dnn_16-10-10_chair_10_n02791124_1140.png
dino_v8,1,608,NaN,keyboard,dog,8-10-10,0608_eid_dnn_8-10-10_dog_10_n02101388_24945.png
dino_v8,1,609,NaN,keyboard,cat,64-10-10,0609_eid_dnn_64-10-10_cat_10_n02124075_20957.png
dino_v8,1,610,NaN,bear,elephant,1-10-10,0610_eid_dnn_1-10-10_elephant_10_n02504013_8105.png
dino_v8,1,611,NaN,clock,truck,2-10-10,0611_eid_dnn_2-10-10_truck_10_n03796401_13992.png
dino_v8,1,612,NaN,keyboard,bottle,128-10-10,0612_eid_dnn_128-10-10_bottle_10_n04560804_22426.png
dino_v8,1,613,NaN,airplane,cat,1-10-10,0613_eid_dnn_1-10-10_cat_10_n02123159_2100.png
dino_v8,1,614,NaN,keyboard,clock,64-10-10,0614_eid_dnn_64-10-10_clock_10_n02708093_6560.png
dino_v8,1,615,NaN,elephant,bird,1-10-10,0615_eid_dnn_1-10-10_bird_10_n01855032_4905.png
dino_v8,1,616,NaN,bear,clock,2-10-10,0616_eid_dnn_2-10-10_clock_10_n04548280_2616.png
dino_v8,1,617,NaN,car,truck,2-10-10,0617_eid_dnn_2-10-10_truck_10_n03417042_3789.png
dino_v8,1,618,NaN,keyboard,oven,64-10-10,0618_eid_dnn_64-10-10_oven_10_n04111531_7356.png
dino_v8,1,619,NaN,car,cat,4-10-10,0619_eid_dnn_4-10-10_cat_10_n02124075_18687.png
dino_v8,1,620,NaN,elephant,keyboard,8-10-10,0620_eid_dnn_8-10-10_keyboard_10_n03085013_17884.png
dino_v8,1,621,NaN,car,keyboard,2-10-10,0621_eid_dnn_2-10-10_keyboard_10_n03085013_4780.png
dino_v8,1,622,NaN,keyboard,cat,16-10-10,0622_eid_dnn_16-10-10_cat_10_n02123045_15476.png
dino_v8,1,623,NaN,keyboard,keyboard,4-10-10,0623_eid_dnn_4-10-10_keyboard_10_n03085013_6095.png
dino_v8,1,624,NaN,boat,airplane,1-10-10,0624_eid_dnn_1-10-10_airplane_10_n02690373_18848.png
dino_v8,1,625,NaN,airplane,bicycle,16-10-10,0625_eid_dnn_16-10-10_bicycle_10_n02835271_18706.png
dino_v8,1,626,NaN,chair,dog,1-10-10,0626_eid_dnn_1-10-10_dog_10_n02111500_1393.png
dino_v8,1,627,NaN,knife,airplane,2-10-10,0627_eid_dnn_2-10-10_airplane_10_n02690373_5748.png
dino_v8,1,628,NaN,airplane,dog,128-10-10,0628_eid_dnn_128-10-10_dog_10_n02100877_7049.png
dino_v8,1,629,NaN,keyboard,bear,32-10-10,0629_eid_dnn_32-10-10_bear_10_n02134084_6854.png
dino_v8,1,630,NaN,keyboard,bottle,16-10-10,0630_eid_dnn_16-10-10_bottle_10_n03983396_11402.png
dino_v8,1,631,NaN,keyboard,cat,64-10-10,0631_eid_dnn_64-10-10_cat_10_n02124075_2813.png
dino_v8,1,632,NaN,keyboard,keyboard,32-10-10,0632_eid_dnn_32-10-10_keyboard_10_n03085013_23814.png
dino_v8,1,633,NaN,elephant,cat,2-10-10,0633_eid_dnn_2-10-10_cat_10_n02125311_30349.png
dino_v8,1,634,NaN,keyboard,bear,16-10-10,0634_eid_dnn_16-10-10_bear_10_n02133161_1234.png
dino_v8,1,635,NaN,knife,oven,128-10-10,0635_eid_dnn_128-10-10_oven_10_n04111531_9779.png
dino_v8,1,636,NaN,keyboard,car,64-10-10,0636_eid_dnn_64-10-10_car_10_n02814533_19373.png
dino_v8,1,637,NaN,keyboard,bird,4-10-10,0637_eid_dnn_4-10-10_bird_10_n02051845_41380.png
dino_v8,1,638,NaN,keyboard,cat,16-10-10,0638_eid_dnn_16-10-10_cat_10_n02123159_2455.png
dino_v8,1,639,NaN,airplane,knife,8-10-10,0639_eid_dnn_8-10-10_knife_10_n03041632_23803.png
dino_v8,1,640,NaN,keyboard,boat,16-10-10,0640_eid_dnn_16-10-10_boat_10_n02951358_2013.png
dino_v8,1,641,NaN,keyboard,bottle,64-10-10,0641_eid_dnn_64-10-10_bottle_10_n04591713_6561.png
dino_v8,1,642,NaN,keyboard,elephant,32-10-10,0642_eid_dnn_32-10-10_elephant_10_n02504013_12531.png
dino_v8,1,643,NaN,keyboard,boat,64-10-10,0643_eid_dnn_64-10-10_boat_10_n04612504_4719.png
dino_v8,1,644,NaN,keyboard,car,32-10-10,0644_eid_dnn_32-10-10_car_10_n02814533_46403.png
dino_v8,1,645,NaN,keyboard,airplane,8-10-10,0645_eid_dnn_8-10-10_airplane_10_n02690373_8304.png
dino_v8,1,646,NaN,keyboard,boat,16-10-10,0646_eid_dnn_16-10-10_boat_10_n03662601_2686.png
dino_v8,1,647,NaN,elephant,dog,2-10-10,0647_eid_dnn_2-10-10_dog_10_n02099849_2787.png
dino_v8,1,648,NaN,elephant,elephant,1-10-10,0648_eid_dnn_1-10-10_elephant_10_n02504458_7063.png
dino_v8,1,649,NaN,bicycle,chair,1-10-10,0649_eid_dnn_1-10-10_chair_10_n03376595_6938.png
dino_v8,1,650,NaN,keyboard,chair,8-10-10,0650_eid_dnn_8-10-10_chair_10_n02791124_5191.png
dino_v8,1,651,NaN,knife,boat,2-10-10,0651_eid_dnn_2-10-10_boat_10_n02951358_2350.png
dino_v8,1,652,NaN,chair,bear,8-10-10,0652_eid_dnn_8-10-10_bear_10_n02132136_6266.png
dino_v8,1,653,NaN,keyboard,chair,32-10-10,0653_eid_dnn_32-10-10_chair_10_n03376595_8964.png
dino_v8,1,654,NaN,knife,airplane,2-10-10,0654_eid_dnn_2-10-10_airplane_10_n02690373_4042.png
dino_v8,1,655,NaN,airplane,oven,2-10-10,0655_eid_dnn_2-10-10_oven_10_n04111531_845.png
dino_v8,1,656,NaN,airplane,car,32-10-10,0656_eid_dnn_32-10-10_car_10_n02814533_49630.png
dino_v8,1,657,NaN,knife,knife,4-10-10,0657_eid_dnn_4-10-10_knife_10_n03041632_40450.png
dino_v8,1,658,NaN,keyboard,chair,16-10-10,0658_eid_dnn_16-10-10_chair_10_n04429376_11720.png
dino_v8,1,659,NaN,oven,knife,4-10-10,0659_eid_dnn_4-10-10_knife_10_n03041632_27929.png
dino_v8,1,660,NaN,chair,bird,1-10-10,0660_eid_dnn_1-10-10_bird_10_n02018207_10146.png
dino_v8,1,661,NaN,keyboard,elephant,32-10-10,0661_eid_dnn_32-10-10_elephant_10_n02504458_2471.png
dino_v8,1,662,NaN,elephant,oven,8-10-10,0662_eid_dnn_8-10-10_oven_10_n04111531_20511.png
dino_v8,1,663,NaN,airplane,truck,32-10-10,0663_eid_dnn_32-10-10_truck_10_n03417042_3228.png
dino_v8,1,664,NaN,elephant,cat,2-10-10,0664_eid_dnn_2-10-10_cat_10_n02125311_9364.png
dino_v8,1,665,NaN,airplane,car,2-10-10,0665_eid_dnn_2-10-10_car_10_n04285008_16701.png
dino_v8,1,666,NaN,keyboard,boat,8-10-10,0666_eid_dnn_8-10-10_boat_10_n04273569_2667.png
dino_v8,1,667,NaN,bear,boat,1-10-10,0667_eid_dnn_1-10-10_boat_10_n03662601_24208.png
dino_v8,1,668,NaN,knife,truck,8-10-10,0668_eid_dnn_8-10-10_truck_10_n03417042_11037.png
dino_v8,1,669,NaN,cat,bird,1-10-10,0669_eid_dnn_1-10-10_bird_10_n02002724_19618.png
dino_v8,1,670,NaN,keyboard,bear,16-10-10,0670_eid_dnn_16-10-10_bear_10_n02134418_1663.png
dino_v8,1,671,NaN,keyboard,chair,128-10-10,0671_eid_dnn_128-10-10_chair_10_n04099969_19484.png
dino_v8,1,672,NaN,airplane,car,1-10-10,0672_eid_dnn_1-10-10_car_10_n04285008_2727.png
dino_v8,1,673,NaN,keyboard,bicycle,32-10-10,0673_eid_dnn_32-10-10_bicycle_10_n03792782_14935.png
dino_v8,1,674,NaN,airplane,cat,128-10-10,0674_eid_dnn_128-10-10_cat_10_n02124075_8320.png
dino_v8,1,675,NaN,truck,chair,4-10-10,0675_eid_dnn_4-10-10_chair_10_n04429376_57014.png
dino_v8,1,676,NaN,truck,oven,1-10-10,0676_eid_dnn_1-10-10_oven_10_n04111531_2385.png
dino_v8,1,677,NaN,keyboard,dog,64-10-10,0677_eid_dnn_64-10-10_dog_10_n02113023_10107.png
dino_v8,1,678,NaN,keyboard,elephant,16-10-10,0678_eid_dnn_16-10-10_elephant_10_n02504458_4708.png
dino_v8,1,679,NaN,keyboard,truck,64-10-10,0679_eid_dnn_64-10-10_truck_10_n04467665_70694.png
dino_v8,1,680,NaN,keyboard,bird,1-10-10,0680_eid_dnn_1-10-10_bird_10_n01843065_1179.png
dino_v8,1,681,NaN,oven,truck,1-10-10,0681_eid_dnn_1-10-10_truck_10_n03417042_11475.png
dino_v8,1,682,NaN,airplane,bicycle,64-10-10,0682_eid_dnn_64-10-10_bicycle_10_n02835271_6137.png
dino_v8,1,683,NaN,knife,airplane,16-10-10,0683_eid_dnn_16-10-10_airplane_10_n02690373_10001.png
dino_v8,1,684,NaN,oven,cat,2-10-10,0684_eid_dnn_2-10-10_cat_10_n02124075_17347.png
dino_v8,1,685,NaN,keyboard,keyboard,16-10-10,0685_eid_dnn_16-10-10_keyboard_10_n04505470_647.png
dino_v8,1,686,NaN,knife,bottle,4-10-10,0686_eid_dnn_4-10-10_bottle_10_n03983396_3028.png
dino_v8,1,687,NaN,airplane,car,1-10-10,0687_eid_dnn_1-10-10_car_10_n02814533_81090.png
dino_v8,1,688,NaN,keyboard,truck,32-10-10,0688_eid_dnn_32-10-10_truck_10_n03417042_18152.png
dino_v8,1,689,NaN,car,bird,128-10-10,0689_eid_dnn_128-10-10_bird_10_n02033041_617.png
dino_v8,1,690,NaN,keyboard,cat,64-10-10,0690_eid_dnn_64-10-10_cat_10_n02123159_7270.png
dino_v8,1,691,NaN,keyboard,bird,64-10-10,0691_eid_dnn_64-10-10_bird_10_n01532829_20405.png
dino_v8,1,692,NaN,keyboard,bottle,32-10-10,0692_eid_dnn_32-10-10_bottle_10_n04557648_182.png
dino_v8,1,693,NaN,airplane,car,64-10-10,0693_eid_dnn_64-10-10_car_10_n04285008_11745.png
dino_v8,1,694,NaN,keyboard,bear,4-10-10,0694_eid_dnn_4-10-10_bear_10_n02134084_38915.png
dino_v8,1,695,NaN,elephant,keyboard,8-10-10,0695_eid_dnn_8-10-10_keyboard_10_n03085013_21066.png
dino_v8,1,696,NaN,truck,bear,2-10-10,0696_eid_dnn_2-10-10_bear_10_n02133161_6458.png
dino_v8,1,697,NaN,keyboard,truck,128-10-10,0697_eid_dnn_128-10-10_truck_10_n04467665_67909.png
dino_v8,1,698,NaN,airplane,car,4-10-10,0698_eid_dnn_4-10-10_car_10_n04285008_12691.png
dino_v8,1,699,NaN,elephant,truck,8-10-10,0699_eid_dnn_8-10-10_truck_10_n04467665_69882.png
dino_v8,1,700,NaN,airplane,cat,4-10-10,0700_eid_dnn_4-10-10_cat_10_n02123045_1902.png
dino_v8,1,701,NaN,airplane,car,4-10-10,0701_eid_dnn_4-10-10_car_10_n03100240_5709.png
dino_v8,1,702,NaN,keyboard,bear,8-10-10,0702_eid_dnn_8-10-10_bear_10_n02134084_1938.png
dino_v8,1,703,NaN,elephant,clock,2-10-10,0703_eid_dnn_2-10-10_clock_10_n02708093_6820.png
dino_v8,1,704,NaN,knife,airplane,1-10-10,0704_eid_dnn_1-10-10_airplane_10_n02690373_5689.png
dino_v8,1,705,NaN,knife,elephant,16-10-10,0705_eid_dnn_16-10-10_elephant_10_n02504013_8563.png
dino_v8,1,706,NaN,airplane,bottle,16-10-10,0706_eid_dnn_16-10-10_bottle_10_n03937543_7767.png
dino_v8,1,707,NaN,keyboard,keyboard,128-10-10,0707_eid_dnn_128-10-10_keyboard_10_n03085013_6862.png
dino_v8,1,708,NaN,bicycle,bottle,2-10-10,0708_eid_dnn_2-10-10_bottle_10_n03937543_1413.png
dino_v8,1,709,NaN,keyboard,truck,8-10-10,0709_eid_dnn_8-10-10_truck_10_n03796401_17201.png
dino_v8,1,710,NaN,keyboard,cat,32-10-10,0710_eid_dnn_32-10-10_cat_10_n02125311_13152.png
dino_v8,1,711,NaN,knife,truck,8-10-10,0711_eid_dnn_8-10-10_truck_10_n03796401_14203.png
dino_v8,1,712,NaN,keyboard,bird,32-10-10,0712_eid_dnn_32-10-10_bird_10_n01537544_3720.png
dino_v8,1,713,NaN,keyboard,boat,128-10-10,0713_eid_dnn_128-10-10_boat_10_n02951358_14346.png
dino_v8,1,714,NaN,keyboard,airplane,64-10-10,0714_eid_dnn_64-10-10_airplane_10_n02690373_757.png
dino_v8,1,715,NaN,keyboard,clock,16-10-10,0715_eid_dnn_16-10-10_clock_10_n04548280_8304.png
dino_v8,1,716,NaN,keyboard,knife,32-10-10,0716_eid_dnn_32-10-10_knife_10_n03041632_20697.png
dino_v8,1,717,NaN,keyboard,clock,128-10-10,0717_eid_dnn_128-10-10_clock_10_n02708093_7883.png
dino_v8,1,718,NaN,airplane,oven,4-10-10,0718_eid_dnn_4-10-10_oven_10_n04111531_14559.png
dino_v8,1,719,NaN,keyboard,oven,64-10-10,0719_eid_dnn_64-10-10_oven_10_n04111531_5906.png
dino_v8,1,720,NaN,bottle,knife,2-10-10,0720_eid_dnn_2-10-10_knife_10_n03041632_4279.png
dino_v8,1,721,NaN,keyboard,dog,128-10-10,0721_eid_dnn_128-10-10_dog_10_n02099601_7103.png
dino_v8,1,722,NaN,keyboard,oven,64-10-10,0722_eid_dnn_64-10-10_oven_10_n04111531_5351.png
dino_v8,1,723,NaN,bicycle,bicycle,4-10-10,0723_eid_dnn_4-10-10_bicycle_10_n03792782_7518.png
dino_v8,1,724,NaN,keyboard,bottle,32-10-10,0724_eid_dnn_32-10-10_bottle_10_n03983396_4321.png
dino_v8,1,725,NaN,oven,cat,1-10-10,0725_eid_dnn_1-10-10_cat_10_n02123394_7782.png
dino_v8,1,726,NaN,keyboard,chair,64-10-10,0726_eid_dnn_64-10-10_chair_10_n02791124_3656.png
dino_v8,1,727,NaN,keyboard,truck,128-10-10,0727_eid_dnn_128-10-10_truck_10_n04467665_15235.png
dino_v8,1,728,NaN,airplane,clock,128-10-10,0728_eid_dnn_128-10-10_clock_10_n02708093_7054.png
dino_v8,1,729,NaN,keyboard,elephant,8-10-10,0729_eid_dnn_8-10-10_elephant_10_n02504013_6737.png
dino_v8,1,730,NaN,airplane,boat,1-10-10,0730_eid_dnn_1-10-10_boat_10_n02951358_3452.png
dino_v8,1,731,NaN,boat,bird,32-10-10,0731_eid_dnn_32-10-10_bird_10_n01537544_5944.png
dino_v8,1,732,NaN,keyboard,car,64-10-10,0732_eid_dnn_64-10-10_car_10_n04285008_3280.png
dino_v8,1,733,NaN,keyboard,oven,8-10-10,0733_eid_dnn_8-10-10_oven_10_n04111531_24096.png
dino_v8,1,734,NaN,keyboard,oven,16-10-10,0734_eid_dnn_16-10-10_oven_10_n04111531_8181.png
dino_v8,1,735,NaN,knife,bird,128-10-10,0735_eid_dnn_128-10-10_bird_10_n01833805_8028.png
dino_v8,1,736,NaN,keyboard,cat,16-10-10,0736_eid_dnn_16-10-10_cat_10_n02123045_11955.png
dino_v8,1,737,NaN,keyboard,airplane,16-10-10,0737_eid_dnn_16-10-10_airplane_10_n02690373_9423.png
dino_v8,1,738,NaN,airplane,knife,16-10-10,0738_eid_dnn_16-10-10_knife_10_n03041632_13478.png
dino_v8,1,739,NaN,elephant,bottle,2-10-10,0739_eid_dnn_2-10-10_bottle_10_n03983396_795.png
dino_v8,1,740,NaN,keyboard,bottle,128-10-10,0740_eid_dnn_128-10-10_bottle_10_n02823428_8079.png
dino_v8,1,741,NaN,keyboard,car,16-10-10,0741_eid_dnn_16-10-10_car_10_n03100240_17289.png
dino_v8,1,742,NaN,elephant,bear,4-10-10,0742_eid_dnn_4-10-10_bear_10_n02132136_1646.png
dino_v8,1,743,NaN,keyboard,boat,64-10-10,0743_eid_dnn_64-10-10_boat_10_n04273569_30203.png
dino_v8,1,744,NaN,airplane,knife,128-10-10,0744_eid_dnn_128-10-10_knife_10_n03041632_47703.png
dino_v8,1,745,NaN,knife,airplane,1-10-10,0745_eid_dnn_1-10-10_airplane_10_n02690373_3928.png
dino_v8,1,746,NaN,airplane,dog,8-10-10,0746_eid_dnn_8-10-10_dog_10_n02093991_4977.png
dino_v8,1,747,NaN,airplane,dog,4-10-10,0747_eid_dnn_4-10-10_dog_10_n02113712_5816.png
dino_v8,1,748,NaN,airplane,car,2-10-10,0748_eid_dnn_2-10-10_car_10_n02814533_62992.png
dino_v8,1,749,NaN,airplane,bear,2-10-10,0749_eid_dnn_2-10-10_bear_10_n02134084_4818.png
dino_v8,1,750,NaN,keyboard,elephant,128-10-10,0750_eid_dnn_128-10-10_elephant_10_n02504458_5333.png
dino_v8,1,751,NaN,airplane,bottle,1-10-10,0751_eid_dnn_1-10-10_bottle_10_n04560804_17045.png
dino_v8,1,752,NaN,airplane,oven,1-10-10,0752_eid_dnn_1-10-10_oven_10_n04111531_3126.png
dino_v8,1,753,NaN,keyboard,oven,16-10-10,0753_eid_dnn_16-10-10_oven_10_n04111531_13831.png
dino_v8,1,754,NaN,keyboard,truck,16-10-10,0754_eid_dnn_16-10-10_truck_10_n03417042_6941.png
dino_v8,1,755,NaN,keyboard,bird,16-10-10,0755_eid_dnn_16-10-10_bird_10_n02017213_1619.png
dino_v8,1,756,NaN,knife,cat,4-10-10,0756_eid_dnn_4-10-10_cat_10_n02123159_273.png
dino_v8,1,757,NaN,airplane,chair,64-10-10,0757_eid_dnn_64-10-10_chair_10_n04429376_11956.png
dino_v8,1,758,NaN,keyboard,boat,4-10-10,0758_eid_dnn_4-10-10_boat_10_n03344393_11788.png
dino_v8,1,759,NaN,oven,oven,16-10-10,0759_eid_dnn_16-10-10_oven_10_n04111531_8852.png
dino_v8,1,760,NaN,knife,bottle,32-10-10,0760_eid_dnn_32-10-10_bottle_10_n04591713_6024.png
dino_v8,1,761,NaN,keyboard,chair,16-10-10,0761_eid_dnn_16-10-10_chair_10_n03376595_5304.png
dino_v8,1,762,NaN,keyboard,truck,64-10-10,0762_eid_dnn_64-10-10_truck_10_n03417042_18072.png
dino_v8,1,763,NaN,car,car,128-10-10,0763_eid_dnn_128-10-10_car_10_n04285008_8727.png
dino_v8,1,764,NaN,clock,truck,1-10-10,0764_eid_dnn_1-10-10_truck_10_n03417042_29384.png
dino_v8,1,765,NaN,keyboard,elephant,4-10-10,0765_eid_dnn_4-10-10_elephant_10_n02504013_14440.png
dino_v8,1,766,NaN,oven,bird,4-10-10,0766_eid_dnn_4-10-10_bird_10_n02007558_16547.png
dino_v8,1,767,NaN,airplane,knife,32-10-10,0767_eid_dnn_32-10-10_knife_10_n03041632_44212.png
dino_v8,1,768,NaN,truck,elephant,2-10-10,0768_eid_dnn_2-10-10_elephant_10_n02504458_14308.png
dino_v8,1,769,NaN,keyboard,knife,8-10-10,0769_eid_dnn_8-10-10_knife_10_n03041632_31363.png
dino_v8,1,770,NaN,keyboard,airplane,8-10-10,0770_eid_dnn_8-10-10_airplane_10_n02690373_1563.png
dino_v8,1,771,NaN,keyboard,bear,128-10-10,0771_eid_dnn_128-10-10_bear_10_n02132136_1624.png
dino_v8,1,772,NaN,airplane,oven,2-10-10,0772_eid_dnn_2-10-10_oven_10_n04111531_13625.png
dino_v8,1,773,NaN,elephant,cat,4-10-10,0773_eid_dnn_4-10-10_cat_10_n02125311_27989.png
dino_v8,1,774,NaN,boat,knife,64-10-10,0774_eid_dnn_64-10-10_knife_10_n03041632_17091.png
dino_v8,1,775,NaN,keyboard,keyboard,8-10-10,0775_eid_dnn_8-10-10_keyboard_10_n03085013_18785.png
dino_v8,1,776,NaN,knife,clock,2-10-10,0776_eid_dnn_2-10-10_clock_10_n04548280_3610.png
dino_v8,1,777,NaN,cat,knife,1-10-10,0777_eid_dnn_1-10-10_knife_10_n03041632_25656.png
dino_v8,1,778,NaN,cat,clock,4-10-10,0778_eid_dnn_4-10-10_clock_10_n04548280_10183.png
dino_v8,1,779,NaN,keyboard,cat,128-10-10,0779_eid_dnn_128-10-10_cat_10_n02123045_991.png
dino_v8,1,780,NaN,bicycle,boat,2-10-10,0780_eid_dnn_2-10-10_boat_10_n03344393_12262.png
dino_v8,1,781,NaN,keyboard,cat,32-10-10,0781_eid_dnn_32-10-10_cat_10_n02125311_57758.png
dino_v8,1,782,NaN,cat,dog,2-10-10,0782_eid_dnn_2-10-10_dog_10_n02110806_5427.png
dino_v8,1,783,NaN,airplane,car,2-10-10,0783_eid_dnn_2-10-10_car_10_n02814533_9812.png
dino_v8,1,784,NaN,keyboard,chair,16-10-10,0784_eid_dnn_16-10-10_chair_10_n04429376_13751.png
dino_v8,1,785,NaN,knife,keyboard,128-10-10,0785_eid_dnn_128-10-10_keyboard_10_n03085013_3257.png
dino_v8,1,786,NaN,keyboard,airplane,16-10-10,0786_eid_dnn_16-10-10_airplane_10_n02690373_4079.png
dino_v8,1,787,NaN,keyboard,keyboard,128-10-10,0787_eid_dnn_128-10-10_keyboard_10_n03085013_24963.png
dino_v8,1,788,NaN,car,boat,32-10-10,0788_eid_dnn_32-10-10_boat_10_n03344393_6978.png
dino_v8,1,789,NaN,keyboard,truck,64-10-10,0789_eid_dnn_64-10-10_truck_10_n03796401_10276.png
dino_v8,1,790,NaN,keyboard,truck,8-10-10,0790_eid_dnn_8-10-10_truck_10_n03417042_19047.png
dino_v8,1,791,NaN,keyboard,knife,64-10-10,0791_eid_dnn_64-10-10_knife_10_n03041632_55953.png
dino_v8,1,792,NaN,elephant,bird,4-10-10,0792_eid_dnn_4-10-10_bird_10_n01558993_4801.png
dino_v8,1,793,NaN,keyboard,bird,32-10-10,0793_eid_dnn_32-10-10_bird_10_n01824575_12101.png
dino_v8,1,794,NaN,keyboard,oven,128-10-10,0794_eid_dnn_128-10-10_oven_10_n04111531_12769.png
dino_v8,1,795,NaN,keyboard,bird,16-10-10,0795_eid_dnn_16-10-10_bird_10_n02009229_5090.png
dino_v8,1,796,NaN,airplane,dog,32-10-10,0796_eid_dnn_32-10-10_dog_10_n02102040_2743.png
dino_v8,1,797,NaN,keyboard,clock,4-10-10,0797_eid_dnn_4-10-10_clock_10_n02708093_6673.png
dino_v8,1,798,NaN,keyboard,cat,16-10-10,0798_eid_dnn_16-10-10_cat_10_n02123159_6954.png
dino_v8,1,799,NaN,keyboard,chair,32-10-10,0799_eid_dnn_32-10-10_chair_10_n04099969_25327.png
dino_v8,1,800,NaN,keyboard,truck,16-10-10,0800_eid_dnn_16-10-10_truck_10_n04467665_11776.png
dino_v8,1,801,NaN,keyboard,knife,32-10-10,0801_eid_dnn_32-10-10_knife_10_n03041632_26340.png
dino_v8,1,802,NaN,keyboard,oven,32-10-10,0802_eid_dnn_32-10-10_oven_10_n04111531_1362.png
dino_v8,1,803,NaN,knife,bicycle,8-10-10,0803_eid_dnn_8-10-10_bicycle_10_n02835271_419.png
dino_v8,1,804,NaN,cat,bicycle,2-10-10,0804_eid_dnn_2-10-10_bicycle_10_n03792782_11720.png
dino_v8,1,805,NaN,airplane,elephant,4-10-10,0805_eid_dnn_4-10-10_elephant_10_n02504013_19769.png
dino_v8,1,806,NaN,knife,keyboard,64-10-10,0806_eid_dnn_64-10-10_keyboard_10_n03085013_19891.png
dino_v8,1,807,NaN,keyboard,airplane,64-10-10,0807_eid_dnn_64-10-10_airplane_10_n02690373_1862.png
dino_v8,1,808,NaN,keyboard,bird,16-10-10,0808_eid_dnn_16-10-10_bird_10_n01616318_8488.png
dino_v8,1,809,NaN,keyboard,car,32-10-10,0809_eid_dnn_32-10-10_car_10_n03100240_20061.png
dino_v8,1,810,NaN,keyboard,chair,4-10-10,0810_eid_dnn_4-10-10_chair_10_n04099969_17866.png
dino_v8,1,811,NaN,keyboard,elephant,8-10-10,0811_eid_dnn_8-10-10_elephant_10_n02504458_6931.png
dino_v8,1,812,NaN,keyboard,bear,16-10-10,0812_eid_dnn_16-10-10_bear_10_n02134418_2714.png
dino_v8,1,813,NaN,keyboard,dog,32-10-10,0813_eid_dnn_32-10-10_dog_10_n02111277_21812.png
dino_v8,1,814,NaN,keyboard,dog,16-10-10,0814_eid_dnn_16-10-10_dog_10_n02086646_7544.png
dino_v8,1,815,NaN,keyboard,boat,16-10-10,0815_eid_dnn_16-10-10_boat_10_n02951358_33918.png
dino_v8,1,816,NaN,keyboard,oven,16-10-10,0816_eid_dnn_16-10-10_oven_10_n04111531_7130.png
dino_v8,1,817,NaN,airplane,clock,32-10-10,0817_eid_dnn_32-10-10_clock_10_n04548280_5937.png
dino_v8,1,818,NaN,keyboard,bird,32-10-10,0818_eid_dnn_32-10-10_bird_10_n01819313_1422.png
dino_v8,1,819,NaN,boat,elephant,4-10-10,0819_eid_dnn_4-10-10_elephant_10_n02504458_7342.png
dino_v8,1,820,NaN,airplane,knife,128-10-10,0820_eid_dnn_128-10-10_knife_10_n03041632_7982.png
dino_v8,1,821,NaN,keyboard,airplane,8-10-10,0821_eid_dnn_8-10-10_airplane_10_n02690373_4586.png
dino_v8,1,822,NaN,bear,clock,16-10-10,0822_eid_dnn_16-10-10_clock_10_n02708093_4255.png
dino_v8,1,823,NaN,keyboard,oven,128-10-10,0823_eid_dnn_128-10-10_oven_10_n04111531_3191.png
dino_v8,1,824,NaN,oven,airplane,1-10-10,0824_eid_dnn_1-10-10_airplane_10_n02690373_5465.png
dino_v8,1,825,NaN,keyboard,chair,64-10-10,0825_eid_dnn_64-10-10_chair_10_n02791124_373.png
dino_v8,1,826,NaN,keyboard,boat,32-10-10,0826_eid_dnn_32-10-10_boat_10_n03662601_1158.png
dino_v8,1,827,NaN,keyboard,elephant,64-10-10,0827_eid_dnn_64-10-10_elephant_10_n02504013_978.png
dino_v8,1,828,NaN,keyboard,chair,32-10-10,0828_eid_dnn_32-10-10_chair_10_n02791124_6492.png
dino_v8,1,829,NaN,airplane,car,1-10-10,0829_eid_dnn_1-10-10_car_10_n03100240_9892.png
dino_v8,1,830,NaN,keyboard,airplane,4-10-10,0830_eid_dnn_4-10-10_airplane_10_n02690373_1489.png
dino_v8,1,831,NaN,oven,dog,128-10-10,0831_eid_dnn_128-10-10_dog_10_n02090622_7102.png
dino_v8,1,832,NaN,elephant,boat,2-10-10,0832_eid_dnn_2-10-10_boat_10_n04273569_72.png
dino_v8,1,833,NaN,oven,bicycle,2-10-10,0833_eid_dnn_2-10-10_bicycle_10_n02835271_2625.png
dino_v8,1,834,NaN,keyboard,cat,64-10-10,0834_eid_dnn_64-10-10_cat_10_n02123159_15664.png
dino_v8,1,835,NaN,bear,clock,1-10-10,0835_eid_dnn_1-10-10_clock_10_n04548280_4562.png
dino_v8,1,836,NaN,keyboard,bottle,2-10-10,0836_eid_dnn_2-10-10_bottle_10_n04591713_6905.png
dino_v8,1,837,NaN,knife,airplane,4-10-10,0837_eid_dnn_4-10-10_airplane_10_n02690373_166.png
dino_v8,1,838,NaN,bicycle,oven,2-10-10,0838_eid_dnn_2-10-10_oven_10_n04111531_3193.png
dino_v8,1,839,NaN,oven,elephant,16-10-10,0839_eid_dnn_16-10-10_elephant_10_n02504458_5274.png
dino_v8,1,840,NaN,keyboard,keyboard,64-10-10,0840_eid_dnn_64-10-10_keyboard_10_n04505470_5131.png
dino_v8,1,841,NaN,keyboard,airplane,2-10-10,0841_eid_dnn_2-10-10_airplane_10_n02690373_19074.png
dino_v8,1,842,NaN,keyboard,bottle,64-10-10,0842_eid_dnn_64-10-10_bottle_10_n03983396_16257.png
dino_v8,1,843,NaN,airplane,bear,32-10-10,0843_eid_dnn_32-10-10_bear_10_n02134418_3470.png
dino_v8,1,844,NaN,keyboard,bear,8-10-10,0844_eid_dnn_8-10-10_bear_10_n02132136_3196.png
dino_v8,1,845,NaN,bottle,bear,128-10-10,0845_eid_dnn_128-10-10_bear_10_n02133161_10184.png
dino_v8,1,846,NaN,keyboard,truck,128-10-10,0846_eid_dnn_128-10-10_truck_10_n03417042_3351.png
dino_v8,1,847,NaN,keyboard,bird,128-10-10,0847_eid_dnn_128-10-10_bird_10_n02013706_6676.png
dino_v8,1,848,NaN,bottle,airplane,128-10-10,0848_eid_dnn_128-10-10_airplane_10_n02690373_9946.png
dino_v8,1,849,NaN,keyboard,car,32-10-10,0849_eid_dnn_32-10-10_car_10_n04285008_8838.png
dino_v8,1,850,NaN,keyboard,car,128-10-10,0850_eid_dnn_128-10-10_car_10_n02814533_40350.png
dino_v8,1,851,NaN,elephant,cat,1-10-10,0851_eid_dnn_1-10-10_cat_10_n02123159_12734.png
dino_v8,1,852,NaN,airplane,airplane,2-10-10,0852_eid_dnn_2-10-10_airplane_10_n02690373_17063.png
dino_v8,1,853,NaN,airplane,bottle,4-10-10,0853_eid_dnn_4-10-10_bottle_10_n04560804_31443.png
dino_v8,1,854,NaN,cat,keyboard,2-10-10,0854_eid_dnn_2-10-10_keyboard_10_n03085013_22713.png
dino_v8,1,855,NaN,knife,truck,1-10-10,0855_eid_dnn_1-10-10_truck_10_n04467665_21969.png
dino_v8,1,856,NaN,keyboard,bear,16-10-10,0856_eid_dnn_16-10-10_bear_10_n02134084_712.png
dino_v8,1,857,NaN,airplane,oven,128-10-10,0857_eid_dnn_128-10-10_oven_10_n04111531_15635.png
dino_v8,1,858,NaN,airplane,keyboard,128-10-10,0858_eid_dnn_128-10-10_keyboard_10_n03085013_5568.png
dino_v8,1,859,NaN,keyboard,chair,128-10-10,0859_eid_dnn_128-10-10_chair_10_n02791124_1059.png
dino_v8,1,860,NaN,knife,airplane,4-10-10,0860_eid_dnn_4-10-10_airplane_10_n02690373_4866.png
dino_v8,1,861,NaN,keyboard,dog,128-10-10,0861_eid_dnn_128-10-10_dog_10_n02086910_13835.png
dino_v8,1,862,NaN,knife,knife,1-10-10,0862_eid_dnn_1-10-10_knife_10_n03041632_9488.png
dino_v8,1,863,NaN,knife,airplane,2-10-10,0863_eid_dnn_2-10-10_airplane_10_n02690373_9170.png
dino_v8,1,864,NaN,oven,boat,8-10-10,0864_eid_dnn_8-10-10_boat_10_n03662601_12323.png
dino_v8,1,865,NaN,keyboard,boat,128-10-10,0865_eid_dnn_128-10-10_boat_10_n02951358_3188.png
dino_v8,1,866,NaN,keyboard,cat,64-10-10,0866_eid_dnn_64-10-10_cat_10_n02123159_4051.png
dino_v8,1,867,NaN,airplane,airplane,64-10-10,0867_eid_dnn_64-10-10_airplane_10_n02690373_10931.png
dino_v8,1,868,NaN,knife,clock,16-10-10,0868_eid_dnn_16-10-10_clock_10_n04548280_6989.png
dino_v8,1,869,NaN,keyboard,car,64-10-10,0869_eid_dnn_64-10-10_car_10_n02814533_52045.png
dino_v8,1,870,NaN,bottle,chair,1-10-10,0870_eid_dnn_1-10-10_chair_10_n04099969_5524.png
dino_v8,1,871,NaN,knife,clock,128-10-10,0871_eid_dnn_128-10-10_clock_10_n04548280_8162.png
dino_v8,1,872,NaN,airplane,bear,1-10-10,0872_eid_dnn_1-10-10_bear_10_n02132136_7796.png
dino_v8,1,873,NaN,airplane,car,4-10-10,0873_eid_dnn_4-10-10_car_10_n04285008_10442.png
dino_v8,1,874,NaN,keyboard,bottle,16-10-10,0874_eid_dnn_16-10-10_bottle_10_n04579145_5777.png
dino_v8,1,875,NaN,cat,bicycle,1-10-10,0875_eid_dnn_1-10-10_bicycle_10_n03792782_13324.png
dino_v8,1,876,NaN,airplane,bird,1-10-10,0876_eid_dnn_1-10-10_bird_10_n01860187_18561.png
dino_v8,1,877,NaN,oven,airplane,1-10-10,0877_eid_dnn_1-10-10_airplane_10_n02690373_13324.png
dino_v8,1,878,NaN,airplane,knife,1-10-10,0878_eid_dnn_1-10-10_knife_10_n03041632_89391.png
dino_v8,1,879,NaN,keyboard,car,16-10-10,0879_eid_dnn_16-10-10_car_10_n02814533_69750.png
dino_v8,1,880,NaN,keyboard,car,8-10-10,0880_eid_dnn_8-10-10_car_10_n04285008_12589.png
dino_v8,1,881,NaN,oven,knife,1-10-10,0881_eid_dnn_1-10-10_knife_10_n03041632_98864.png
dino_v8,1,882,NaN,car,cat,4-10-10,0882_eid_dnn_4-10-10_cat_10_n02123159_491.png
dino_v8,1,883,NaN,keyboard,bottle,4-10-10,0883_eid_dnn_4-10-10_bottle_10_n02823428_4172.png
dino_v8,1,884,NaN,keyboard,elephant,16-10-10,0884_eid_dnn_16-10-10_elephant_10_n02504013_17391.png
dino_v8,1,885,NaN,keyboard,cat,32-10-10,0885_eid_dnn_32-10-10_cat_10_n02125311_14156.png
dino_v8,1,886,NaN,bottle,bicycle,8-10-10,0886_eid_dnn_8-10-10_bicycle_10_n03792782_17430.png
dino_v8,1,887,NaN,car,oven,1-10-10,0887_eid_dnn_1-10-10_oven_10_n04111531_6172.png
dino_v8,1,888,NaN,bicycle,chair,1-10-10,0888_eid_dnn_1-10-10_chair_10_n04099969_24378.png
dino_v8,1,889,NaN,elephant,boat,4-10-10,0889_eid_dnn_4-10-10_boat_10_n03662601_10589.png
dino_v8,1,890,NaN,oven,truck,16-10-10,0890_eid_dnn_16-10-10_truck_10_n03417042_10117.png
dino_v8,1,891,NaN,keyboard,clock,64-10-10,0891_eid_dnn_64-10-10_clock_10_n03196217_8072.png
dino_v8,1,892,NaN,keyboard,bottle,64-10-10,0892_eid_dnn_64-10-10_bottle_10_n04560804_2776.png
dino_v8,1,893,NaN,oven,dog,2-10-10,0893_eid_dnn_2-10-10_dog_10_n02102177_7637.png
dino_v8,1,894,NaN,keyboard,knife,2-10-10,0894_eid_dnn_2-10-10_knife_10_n03041632_7064.png
dino_v8,1,895,NaN,car,boat,2-10-10,0895_eid_dnn_2-10-10_boat_10_n02951358_29724.png
dino_v8,1,896,NaN,airplane,oven,1-10-10,0896_eid_dnn_1-10-10_oven_10_n04111531_10436.png
dino_v8,1,897,NaN,airplane,elephant,32-10-10,0897_eid_dnn_32-10-10_elephant_10_n02504458_11618.png
dino_v8,1,898,NaN,keyboard,dog,8-10-10,0898_eid_dnn_8-10-10_dog_10_n02086079_15773.png
dino_v8,1,899,NaN,knife,airplane,32-10-10,0899_eid_dnn_32-10-10_airplane_10_n02690373_6536.png
dino_v8,1,900,NaN,airplane,truck,32-10-10,0900_eid_dnn_32-10-10_truck_10_n03796401_1213.png
dino_v8,1,901,NaN,keyboard,knife,8-10-10,0901_eid_dnn_8-10-10_knife_10_n03041632_49363.png
dino_v8,1,902,NaN,keyboard,airplane,32-10-10,0902_eid_dnn_32-10-10_airplane_10_n02690373_6831.png
dino_v8,1,903,NaN,keyboard,bear,2-10-10,0903_eid_dnn_2-10-10_bear_10_n02134418_551.png
dino_v8,1,904,NaN,keyboard,knife,32-10-10,0904_eid_dnn_32-10-10_knife_10_n03041632_93026.png
dino_v8,1,905,NaN,keyboard,chair,32-10-10,0905_eid_dnn_32-10-10_chair_10_n04099969_18744.png
dino_v8,1,906,NaN,knife,oven,128-10-10,0906_eid_dnn_128-10-10_oven_10_n04111531_520.png
dino_v8,1,907,NaN,keyboard,chair,64-10-10,0907_eid_dnn_64-10-10_chair_10_n02791124_5845.png
dino_v8,1,908,NaN,keyboard,elephant,16-10-10,0908_eid_dnn_16-10-10_elephant_10_n02504458_361.png
dino_v8,1,909,NaN,airplane,knife,4-10-10,0909_eid_dnn_4-10-10_knife_10_n03041632_35365.png
dino_v8,1,910,NaN,keyboard,bicycle,4-10-10,0910_eid_dnn_4-10-10_bicycle_10_n03792782_15627.png
dino_v8,1,911,NaN,keyboard,dog,64-10-10,0911_eid_dnn_64-10-10_dog_10_n02109525_46113.png
dino_v8,1,912,NaN,car,clock,128-10-10,0912_eid_dnn_128-10-10_clock_10_n04548280_8841.png
dino_v8,1,913,NaN,oven,bottle,8-10-10,0913_eid_dnn_8-10-10_bottle_10_n03937543_4763.png
dino_v8,1,914,NaN,bicycle,oven,8-10-10,0914_eid_dnn_8-10-10_oven_10_n04111531_3159.png
dino_v8,1,915,NaN,keyboard,dog,8-10-10,0915_eid_dnn_8-10-10_dog_10_n02097474_15157.png
dino_v8,1,916,NaN,keyboard,boat,16-10-10,0916_eid_dnn_16-10-10_boat_10_n04273569_31564.png
dino_v8,1,917,NaN,knife,cat,128-10-10,0917_eid_dnn_128-10-10_cat_10_n02124075_10566.png
dino_v8,1,918,NaN,airplane,cat,4-10-10,0918_eid_dnn_4-10-10_cat_10_n02123597_2030.png
dino_v8,1,919,NaN,airplane,dog,32-10-10,0919_eid_dnn_32-10-10_dog_10_n02088466_9891.png
dino_v8,1,920,NaN,keyboard,dog,8-10-10,0920_eid_dnn_8-10-10_dog_10_n02086646_6773.png
dino_v8,1,921,NaN,keyboard,clock,32-10-10,0921_eid_dnn_32-10-10_clock_10_n03196217_3951.png
dino_v8,1,922,NaN,cat,elephant,1-10-10,0922_eid_dnn_1-10-10_elephant_10_n02504013_21311.png
dino_v8,1,923,NaN,bear,dog,1-10-10,0923_eid_dnn_1-10-10_dog_10_n02086240_1567.png
dino_v8,1,924,NaN,keyboard,bird,64-10-10,0924_eid_dnn_64-10-10_bird_10_n01860187_15592.png
dino_v8,1,925,NaN,keyboard,truck,128-10-10,0925_eid_dnn_128-10-10_truck_10_n04467665_4165.png
dino_v8,1,926,NaN,airplane,dog,1-10-10,0926_eid_dnn_1-10-10_dog_10_n02095570_11450.png
dino_v8,1,927,NaN,keyboard,truck,16-10-10,0927_eid_dnn_16-10-10_truck_10_n03417042_26971.png
dino_v8,1,928,NaN,airplane,bear,1-10-10,0928_eid_dnn_1-10-10_bear_10_n02133161_2970.png
dino_v8,1,929,NaN,airplane,boat,2-10-10,0929_eid_dnn_2-10-10_boat_10_n03344393_2254.png
dino_v8,1,930,NaN,keyboard,airplane,32-10-10,0930_eid_dnn_32-10-10_airplane_10_n02690373_7908.png
dino_v8,1,931,NaN,keyboard,keyboard,128-10-10,0931_eid_dnn_128-10-10_keyboard_10_n03085013_19882.png
dino_v8,1,932,NaN,bicycle,clock,1-10-10,0932_eid_dnn_1-10-10_clock_10_n04548280_748.png
dino_v8,1,933,NaN,airplane,car,64-10-10,0933_eid_dnn_64-10-10_car_10_n04285008_6102.png
dino_v8,1,934,NaN,keyboard,chair,128-10-10,0934_eid_dnn_128-10-10_chair_10_n02791124_3241.png
dino_v8,1,935,NaN,bear,clock,1-10-10,0935_eid_dnn_1-10-10_clock_10_n02708093_3996.png
dino_v8,1,936,NaN,keyboard,bird,128-10-10,0936_eid_dnn_128-10-10_bird_10_n01843065_5080.png
dino_v8,1,937,NaN,knife,bird,2-10-10,0937_eid_dnn_2-10-10_bird_10_n02027492_10281.png
dino_v8,1,938,NaN,keyboard,keyboard,2-10-10,0938_eid_dnn_2-10-10_keyboard_10_n03085013_23552.png
dino_v8,1,939,NaN,keyboard,chair,8-10-10,0939_eid_dnn_8-10-10_chair_10_n02791124_5319.png
dino_v8,1,940,NaN,chair,knife,2-10-10,0940_eid_dnn_2-10-10_knife_10_n03041632_927.png
dino_v8,1,941,NaN,keyboard,bird,16-10-10,0941_eid_dnn_16-10-10_bird_10_n02018207_16716.png
dino_v8,1,942,NaN,keyboard,bird,32-10-10,0942_eid_dnn_32-10-10_bird_10_n01622779_66.png
dino_v8,1,943,NaN,airplane,bicycle,64-10-10,0943_eid_dnn_64-10-10_bicycle_10_n03792782_9004.png
dino_v8,1,944,NaN,elephant,bicycle,4-10-10,0944_eid_dnn_4-10-10_bicycle_10_n03792782_4207.png
dino_v8,1,945,NaN,keyboard,oven,64-10-10,0945_eid_dnn_64-10-10_oven_10_n04111531_5038.png
dino_v8,1,946,NaN,car,bicycle,2-10-10,0946_eid_dnn_2-10-10_bicycle_10_n02835271_15038.png
dino_v8,1,947,NaN,elephant,clock,1-10-10,0947_eid_dnn_1-10-10_clock_10_n02708093_57.png
dino_v8,1,948,NaN,chair,bird,2-10-10,0948_eid_dnn_2-10-10_bird_10_n02009912_20610.png
dino_v8,1,949,NaN,keyboard,bird,8-10-10,0949_eid_dnn_8-10-10_bird_10_n02002724_1484.png
dino_v8,1,950,NaN,keyboard,car,32-10-10,0950_eid_dnn_32-10-10_car_10_n02814533_42059.png
dino_v8,1,951,NaN,truck,elephant,2-10-10,0951_eid_dnn_2-10-10_elephant_10_n02504013_10390.png
dino_v8,1,952,NaN,keyboard,bear,16-10-10,0952_eid_dnn_16-10-10_bear_10_n02133161_7080.png
dino_v8,1,953,NaN,keyboard,keyboard,8-10-10,0953_eid_dnn_8-10-10_keyboard_10_n04505470_4616.png
dino_v8,1,954,NaN,airplane,bicycle,32-10-10,0954_eid_dnn_32-10-10_bicycle_10_n02835271_19834.png
dino_v8,1,955,NaN,keyboard,bottle,32-10-10,0955_eid_dnn_32-10-10_bottle_10_n04591713_7561.png
dino_v8,1,956,NaN,elephant,keyboard,32-10-10,0956_eid_dnn_32-10-10_keyboard_10_n04505470_5173.png
dino_v8,1,957,NaN,airplane,car,1-10-10,0957_eid_dnn_1-10-10_car_10_n02814533_13977.png
dino_v8,1,958,NaN,oven,knife,2-10-10,0958_eid_dnn_2-10-10_knife_10_n03041632_37949.png
dino_v8,1,959,NaN,keyboard,bird,128-10-10,0959_eid_dnn_128-10-10_bird_10_n01582220_359.png
dino_v8,1,960,NaN,airplane,truck,8-10-10,0960_eid_dnn_8-10-10_truck_10_n03796401_24341.png
dino_v8,1,961,NaN,knife,bottle,16-10-10,0961_eid_dnn_16-10-10_bottle_10_n02823428_4282.png
dino_v8,1,962,NaN,airplane,airplane,128-10-10,0962_eid_dnn_128-10-10_airplane_10_n02690373_9963.png
dino_v8,1,963,NaN,truck,elephant,1-10-10,0963_eid_dnn_1-10-10_elephant_10_n02504013_130.png
dino_v8,1,964,NaN,keyboard,keyboard,64-10-10,0964_eid_dnn_64-10-10_keyboard_10_n03085013_20218.png
dino_v8,1,965,NaN,clock,bear,8-10-10,0965_eid_dnn_8-10-10_bear_10_n02132136_2203.png
dino_v8,1,966,NaN,oven,keyboard,1-10-10,0966_eid_dnn_1-10-10_keyboard_10_n04505470_4668.png
dino_v8,1,967,NaN,chair,knife,1-10-10,0967_eid_dnn_1-10-10_knife_10_n03041632_16172.png
dino_v8,1,968,NaN,elephant,keyboard,16-10-10,0968_eid_dnn_16-10-10_keyboard_10_n04505470_1067.png
dino_v8,1,969,NaN,keyboard,dog,32-10-10,0969_eid_dnn_32-10-10_dog_10_n02107908_2313.png
dino_v8,1,970,NaN,keyboard,bear,128-10-10,0970_eid_dnn_128-10-10_bear_10_n02132136_3873.png
dino_v8,1,971,NaN,bicycle,boat,1-10-10,0971_eid_dnn_1-10-10_boat_10_n03344393_6103.png
dino_v8,1,972,NaN,keyboard,chair,128-10-10,0972_eid_dnn_128-10-10_chair_10_n02791124_15934.png
dino_v8,1,973,NaN,airplane,boat,128-10-10,0973_eid_dnn_128-10-10_boat_10_n03662601_2438.png
dino_v8,1,974,NaN,airplane,cat,16-10-10,0974_eid_dnn_16-10-10_cat_10_n02123597_14771.png
dino_v8,1,975,NaN,keyboard,knife,16-10-10,0975_eid_dnn_16-10-10_knife_10_n03041632_37513.png
dino_v8,1,976,NaN,airplane,bicycle,64-10-10,0976_eid_dnn_64-10-10_bicycle_10_n02835271_15617.png
dino_v8,1,977,NaN,cat,dog,4-10-10,0977_eid_dnn_4-10-10_dog_10_n02102973_13.png
dino_v8,1,978,NaN,keyboard,boat,64-10-10,0978_eid_dnn_64-10-10_boat_10_n03344393_4012.png
dino_v8,1,979,NaN,elephant,clock,16-10-10,0979_eid_dnn_16-10-10_clock_10_n02708093_3365.png
dino_v8,1,980,NaN,knife,truck,2-10-10,0980_eid_dnn_2-10-10_truck_10_n04467665_20700.png
dino_v8,1,981,NaN,airplane,oven,4-10-10,0981_eid_dnn_4-10-10_oven_10_n04111531_3076.png
dino_v8,1,982,NaN,airplane,car,8-10-10,0982_eid_dnn_8-10-10_car_10_n02814533_39807.png
dino_v8,1,983,NaN,keyboard,truck,64-10-10,0983_eid_dnn_64-10-10_truck_10_n04467665_66624.png
dino_v8,1,984,NaN,elephant,truck,16-10-10,0984_eid_dnn_16-10-10_truck_10_n04467665_30504.png
dino_v8,1,985,NaN,airplane,car,2-10-10,0985_eid_dnn_2-10-10_car_10_n03100240_7066.png
dino_v8,1,986,NaN,keyboard,oven,128-10-10,0986_eid_dnn_128-10-10_oven_10_n04111531_9304.png
dino_v8,1,987,NaN,car,airplane,64-10-10,0987_eid_dnn_64-10-10_airplane_10_n02690373_4845.png
dino_v8,1,988,NaN,elephant,boat,4-10-10,0988_eid_dnn_4-10-10_boat_10_n03662601_81.png
dino_v8,1,989,NaN,keyboard,elephant,64-10-10,0989_eid_dnn_64-10-10_elephant_10_n02504458_1985.png
dino_v8,1,990,NaN,knife,cat,2-10-10,0990_eid_dnn_2-10-10_cat_10_n02124075_5953.png
dino_v8,1,991,NaN,car,bird,2-10-10,0991_eid_dnn_2-10-10_bird_10_n02009912_18125.png
dino_v8,1,992,NaN,keyboard,clock,16-10-10,0992_eid_dnn_16-10-10_clock_10_n04548280_3541.png
dino_v8,1,993,NaN,bear,clock,4-10-10,0993_eid_dnn_4-10-10_clock_10_n04548280_2778.png
dino_v8,1,994,NaN,oven,clock,4-10-10,0994_eid_dnn_4-10-10_clock_10_n04548280_4275.png
dino_v8,1,995,NaN,keyboard,knife,32-10-10,0995_eid_dnn_32-10-10_knife_10_n03041632_3717.png
dino_v8,1,996,NaN,airplane,clock,8-10-10,0996_eid_dnn_8-10-10_clock_10_n03196217_6831.png
dino_v8,1,997,NaN,oven,oven,2-10-10,0997_eid_dnn_2-10-10_oven_10_n04111531_5218.png
dino_v8,1,998,NaN,oven,truck,8-10-10,0998_eid_dnn_8-10-10_truck_10_n03796401_1150.png
dino_v8,1,999,NaN,bottle,oven,8-10-10,0999_eid_dnn_8-10-10_oven_10_n04111531_4809.png
dino_v8,1,1000,NaN,keyboard,airplane,16-10-10,1000_eid_dnn_16-10-10_airplane_10_n02690373_3100.png
dino_v8,1,1001,NaN,keyboard,bird,8-10-10,1001_eid_dnn_8-10-10_bird_10_n01514859_1421.png
dino_v8,1,1002,NaN,keyboard,boat,16-10-10,1002_eid_dnn_16-10-10_boat_10_n04273569_17671.png
dino_v8,1,1003,NaN,bicycle,dog,2-10-10,1003_eid_dnn_2-10-10_dog_10_n02085936_2225.png
dino_v8,1,1004,NaN,keyboard,elephant,32-10-10,1004_eid_dnn_32-10-10_elephant_10_n02504458_5641.png
dino_v8,1,1005,NaN,keyboard,car,64-10-10,1005_eid_dnn_64-10-10_car_10_n03100240_3267.png
dino_v8,1,1006,NaN,keyboard,chair,64-10-10,1006_eid_dnn_64-10-10_chair_10_n04429376_6147.png
dino_v8,1,1007,NaN,keyboard,bear,64-10-10,1007_eid_dnn_64-10-10_bear_10_n02132136_20009.png
dino_v8,1,1008,NaN,cat,bicycle,4-10-10,1008_eid_dnn_4-10-10_bicycle_10_n02835271_17326.png
dino_v8,1,1009,NaN,keyboard,clock,128-10-10,1009_eid_dnn_128-10-10_clock_10_n03196217_11714.png
dino_v8,1,1010,NaN,chair,bear,2-10-10,1010_eid_dnn_2-10-10_bear_10_n02134418_8516.png
dino_v8,1,1011,NaN,keyboard,boat,64-10-10,1011_eid_dnn_64-10-10_boat_10_n04612504_14480.png
dino_v8,1,1012,NaN,car,keyboard,4-10-10,1012_eid_dnn_4-10-10_keyboard_10_n03085013_6978.png
dino_v8,1,1013,NaN,knife,chair,4-10-10,1013_eid_dnn_4-10-10_chair_10_n04099969_1792.png
dino_v8,1,1014,NaN,cat,dog,4-10-10,1014_eid_dnn_4-10-10_dog_10_n02097130_4088.png
dino_v8,1,1015,NaN,keyboard,truck,32-10-10,1015_eid_dnn_32-10-10_truck_10_n03417042_28832.png
dino_v8,1,1016,NaN,boat,keyboard,2-10-10,1016_eid_dnn_2-10-10_keyboard_10_n03085013_24087.png
dino_v8,1,1017,NaN,bicycle,chair,1-10-10,1017_eid_dnn_1-10-10_chair_10_n03376595_14729.png
dino_v8,1,1018,NaN,knife,airplane,2-10-10,1018_eid_dnn_2-10-10_airplane_10_n02690373_9247.png
dino_v8,1,1019,NaN,keyboard,car,128-10-10,1019_eid_dnn_128-10-10_car_10_n04285008_2653.png
dino_v8,1,1020,NaN,elephant,keyboard,2-10-10,1020_eid_dnn_2-10-10_keyboard_10_n04505470_4624.png
dino_v8,1,1021,NaN,airplane,clock,128-10-10,1021_eid_dnn_128-10-10_clock_10_n02708093_2845.png
dino_v8,1,1022,NaN,keyboard,airplane,4-10-10,1022_eid_dnn_4-10-10_airplane_10_n02690373_3859.png
dino_v8,1,1023,NaN,oven,elephant,8-10-10,1023_eid_dnn_8-10-10_elephant_10_n02504458_4448.png
dino_v8,1,1024,NaN,airplane,bottle,2-10-10,1024_eid_dnn_2-10-10_bottle_10_n04557648_4008.png
dino_v8,1,1025,NaN,bicycle,chair,8-10-10,1025_eid_dnn_8-10-10_chair_10_n03376595_1044.png
dino_v8,1,1026,NaN,keyboard,clock,32-10-10,1026_eid_dnn_32-10-10_clock_10_n04548280_7354.png
dino_v8,1,1027,NaN,keyboard,bicycle,16-10-10,1027_eid_dnn_16-10-10_bicycle_10_n03792782_7688.png
dino_v8,1,1028,NaN,chair,keyboard,1-10-10,1028_eid_dnn_1-10-10_keyboard_10_n04505470_4702.png
dino_v8,1,1029,NaN,elephant,bottle,16-10-10,1029_eid_dnn_16-10-10_bottle_10_n03983396_486.png
dino_v8,1,1030,NaN,keyboard,bicycle,128-10-10,1030_eid_dnn_128-10-10_bicycle_10_n03792782_18687.png
dino_v8,1,1031,NaN,knife,truck,2-10-10,1031_eid_dnn_2-10-10_truck_10_n04467665_55499.png
dino_v8,1,1032,NaN,knife,airplane,1-10-10,1032_eid_dnn_1-10-10_airplane_10_n02690373_10210.png
dino_v8,1,1033,NaN,keyboard,airplane,16-10-10,1033_eid_dnn_16-10-10_airplane_10_n02690373_10402.png
dino_v8,1,1034,NaN,airplane,bottle,32-10-10,1034_eid_dnn_32-10-10_bottle_10_n04579145_2303.png
dino_v8,1,1035,NaN,keyboard,elephant,8-10-10,1035_eid_dnn_8-10-10_elephant_10_n02504013_6120.png
dino_v8,1,1036,NaN,keyboard,bear,32-10-10,1036_eid_dnn_32-10-10_bear_10_n02134418_4050.png
dino_v8,1,1037,NaN,cat,elephant,4-10-10,1037_eid_dnn_4-10-10_elephant_10_n02504458_6185.png
dino_v8,1,1038,NaN,keyboard,boat,32-10-10,1038_eid_dnn_32-10-10_boat_10_n03344393_897.png
dino_v8,1,1039,NaN,keyboard,dog,64-10-10,1039_eid_dnn_64-10-10_dog_10_n02099429_1118.png
dino_v8,1,1040,NaN,airplane,car,1-10-10,1040_eid_dnn_1-10-10_car_10_n03100240_9019.png
dino_v8,1,1041,NaN,keyboard,airplane,32-10-10,1041_eid_dnn_32-10-10_airplane_10_n02690373_4588.png
dino_v8,1,1042,NaN,oven,cat,4-10-10,1042_eid_dnn_4-10-10_cat_10_n02124075_14881.png
dino_v8,1,1043,NaN,car,bottle,128-10-10,1043_eid_dnn_128-10-10_bottle_10_n04557648_6010.png
dino_v8,1,1044,NaN,keyboard,bicycle,64-10-10,1044_eid_dnn_64-10-10_bicycle_10_n03792782_14492.png
dino_v8,1,1045,NaN,oven,bottle,16-10-10,1045_eid_dnn_16-10-10_bottle_10_n04557648_1360.png
dino_v8,1,1046,NaN,keyboard,bird,32-10-10,1046_eid_dnn_32-10-10_bird_10_n01795545_15065.png
dino_v8,1,1047,NaN,keyboard,oven,64-10-10,1047_eid_dnn_64-10-10_oven_10_n04111531_1922.png
dino_v8,1,1048,NaN,airplane,car,4-10-10,1048_eid_dnn_4-10-10_car_10_n02814533_2654.png
dino_v8,1,1049,NaN,bottle,elephant,8-10-10,1049_eid_dnn_8-10-10_elephant_10_n02504458_3342.png
dino_v8,1,1050,NaN,knife,airplane,4-10-10,1050_eid_dnn_4-10-10_airplane_10_n02690373_5797.png
dino_v8,1,1051,NaN,keyboard,bear,4-10-10,1051_eid_dnn_4-10-10_bear_10_n02134418_3287.png
dino_v8,1,1052,NaN,keyboard,car,32-10-10,1052_eid_dnn_32-10-10_car_10_n02814533_28171.png
dino_v8,1,1053,NaN,keyboard,dog,128-10-10,1053_eid_dnn_128-10-10_dog_10_n02108551_5950.png
dino_v8,1,1054,NaN,knife,bird,4-10-10,1054_eid_dnn_4-10-10_bird_10_n02009912_645.png
dino_v8,1,1055,NaN,keyboard,knife,2-10-10,1055_eid_dnn_2-10-10_knife_10_n03041632_51339.png
dino_v8,1,1056,NaN,keyboard,knife,4-10-10,1056_eid_dnn_4-10-10_knife_10_n03041632_25331.png
dino_v8,1,1057,NaN,airplane,car,128-10-10,1057_eid_dnn_128-10-10_car_10_n03100240_3858.png
dino_v8,1,1058,NaN,cat,bird,1-10-10,1058_eid_dnn_1-10-10_bird_10_n01614925_7618.png
dino_v8,1,1059,NaN,car,oven,2-10-10,1059_eid_dnn_2-10-10_oven_10_n04111531_8082.png
dino_v8,1,1060,NaN,bottle,cat,1-10-10,1060_eid_dnn_1-10-10_cat_10_n02123394_2347.png
dino_v8,1,1061,NaN,airplane,bottle,64-10-10,1061_eid_dnn_64-10-10_bottle_10_n02823428_7316.png
dino_v8,1,1062,NaN,cat,bicycle,1-10-10,1062_eid_dnn_1-10-10_bicycle_10_n03792782_70404.png
dino_v8,1,1063,NaN,airplane,bicycle,8-10-10,1063_eid_dnn_8-10-10_bicycle_10_n02835271_1016.png
dino_v8,1,1064,NaN,keyboard,airplane,32-10-10,1064_eid_dnn_32-10-10_airplane_10_n02690373_5055.png
dino_v8,1,1065,NaN,keyboard,oven,16-10-10,1065_eid_dnn_16-10-10_oven_10_n04111531_20875.png
dino_v8,1,1066,NaN,airplane,knife,128-10-10,1066_eid_dnn_128-10-10_knife_10_n03041632_22734.png
dino_v8,1,1067,NaN,airplane,knife,64-10-10,1067_eid_dnn_64-10-10_knife_10_n03041632_12537.png
dino_v8,1,1068,NaN,keyboard,oven,1-10-10,1068_eid_dnn_1-10-10_oven_10_n04111531_12080.png
dino_v8,1,1069,NaN,keyboard,car,128-10-10,1069_eid_dnn_128-10-10_car_10_n04285008_3150.png
dino_v8,1,1070,NaN,airplane,truck,64-10-10,1070_eid_dnn_64-10-10_truck_10_n04467665_19131.png
dino_v8,1,1071,NaN,airplane,car,4-10-10,1071_eid_dnn_4-10-10_car_10_n02814533_4087.png
dino_v8,1,1072,NaN,keyboard,truck,32-10-10,1072_eid_dnn_32-10-10_truck_10_n03417042_27326.png
dino_v8,1,1073,NaN,bicycle,chair,1-10-10,1073_eid_dnn_1-10-10_chair_10_n03376595_3824.png
dino_v8,1,1074,NaN,keyboard,elephant,32-10-10,1074_eid_dnn_32-10-10_elephant_10_n02504013_464.png
dino_v8,1,1075,NaN,airplane,boat,32-10-10,1075_eid_dnn_32-10-10_boat_10_n03662601_21699.png
dino_v8,1,1076,NaN,oven,bottle,4-10-10,1076_eid_dnn_4-10-10_bottle_10_n03983396_4503.png
dino_v8,1,1077,NaN,keyboard,elephant,128-10-10,1077_eid_dnn_128-10-10_elephant_10_n02504013_1698.png
dino_v8,1,1078,NaN,airplane,keyboard,4-10-10,1078_eid_dnn_4-10-10_keyboard_10_n03085013_3812.png
dino_v8,1,1079,NaN,knife,airplane,4-10-10,1079_eid_dnn_4-10-10_airplane_10_n02690373_10044.png
dino_v8,1,1080,NaN,airplane,bottle,4-10-10,1080_eid_dnn_4-10-10_bottle_10_n04560804_8841.png
dino_v8,1,1081,NaN,keyboard,bird,128-10-10,1081_eid_dnn_128-10-10_bird_10_n01796340_18591.png
dino_v8,1,1082,NaN,elephant,clock,2-10-10,1082_eid_dnn_2-10-10_clock_10_n04548280_3341.png
dino_v8,1,1083,NaN,bear,clock,8-10-10,1083_eid_dnn_8-10-10_clock_10_n02708093_2555.png
dino_v8,1,1084,NaN,keyboard,bird,16-10-10,1084_eid_dnn_16-10-10_bird_10_n02006656_5021.png
dino_v8,1,1085,NaN,cat,keyboard,1-10-10,1085_eid_dnn_1-10-10_keyboard_10_n03085013_22719.png
dino_v8,1,1086,NaN,keyboard,keyboard,1-10-10,1086_eid_dnn_1-10-10_keyboard_10_n03085013_22942.png
dino_v8,1,1087,NaN,keyboard,oven,32-10-10,1087_eid_dnn_32-10-10_oven_10_n04111531_12830.png
dino_v8,1,1088,NaN,elephant,oven,4-10-10,1088_eid_dnn_4-10-10_oven_10_n04111531_3555.png
dino_v8,1,1089,NaN,elephant,cat,8-10-10,1089_eid_dnn_8-10-10_cat_10_n02123159_4203.png
dino_v8,1,1090,NaN,airplane,cat,2-10-10,1090_eid_dnn_2-10-10_cat_10_n02123597_7933.png
dino_v8,1,1091,NaN,car,knife,1-10-10,1091_eid_dnn_1-10-10_knife_10_n03041632_32350.png
