subj,session,trial,rt,object_response,category,condition,imagename
bagnet9,1,1,NaN,cat,oven,1-10-10,0001_eid_dnn_1-10-10_oven_10_n04111531_17072.png
bagnet9,1,2,NaN,cat,airplane,16-10-10,0002_eid_dnn_16-10-10_airplane_10_n02690373_4183.png
bagnet9,1,3,NaN,dog,car,8-10-10,0003_eid_dnn_8-10-10_car_10_n03100240_1137.png
bagnet9,1,4,NaN,truck,clock,2-10-10,0004_eid_dnn_2-10-10_clock_10_n04548280_7083.png
bagnet9,1,5,NaN,keyboard,bottle,2-10-10,0005_eid_dnn_2-10-10_bottle_10_n02823428_7810.png
bagnet9,1,6,NaN,cat,dog,128-10-10,0006_eid_dnn_128-10-10_dog_10_n02091244_8368.png
bagnet9,1,7,NaN,bicycle,bicycle,1-10-10,0007_eid_dnn_1-10-10_bicycle_10_n02835271_2930.png
bagnet9,1,8,NaN,bird,knife,4-10-10,0008_eid_dnn_4-10-10_knife_10_n03041632_52848.png
bagnet9,1,9,NaN,bottle,bottle,2-10-10,0009_eid_dnn_2-10-10_bottle_10_n02823428_4097.png
bagnet9,1,10,NaN,cat,dog,8-10-10,0010_eid_dnn_8-10-10_dog_10_n02105641_10264.png
bagnet9,1,11,NaN,dog,boat,8-10-10,0011_eid_dnn_8-10-10_boat_10_n03662601_10278.png
bagnet9,1,12,NaN,elephant,truck,32-10-10,0012_eid_dnn_32-10-10_truck_10_n04467665_76958.png
bagnet9,1,13,NaN,dog,dog,16-10-10,0013_eid_dnn_16-10-10_dog_10_n02088238_12552.png
bagnet9,1,14,NaN,bird,dog,8-10-10,0014_eid_dnn_8-10-10_dog_10_n02102040_994.png
bagnet9,1,15,NaN,cat,bear,128-10-10,0015_eid_dnn_128-10-10_bear_10_n02133161_1944.png
bagnet9,1,16,NaN,dog,car,16-10-10,0016_eid_dnn_16-10-10_car_10_n02814533_43040.png
bagnet9,1,17,NaN,cat,oven,128-10-10,0017_eid_dnn_128-10-10_oven_10_n04111531_18592.png
bagnet9,1,18,NaN,cat,chair,16-10-10,0018_eid_dnn_16-10-10_chair_10_n02791124_4294.png
bagnet9,1,19,NaN,cat,knife,32-10-10,0019_eid_dnn_32-10-10_knife_10_n03041632_2630.png
bagnet9,1,20,NaN,elephant,elephant,1-10-10,0020_eid_dnn_1-10-10_elephant_10_n02504458_723.png
bagnet9,1,21,NaN,keyboard,chair,4-10-10,0021_eid_dnn_4-10-10_chair_10_n03376595_6107.png
bagnet9,1,22,NaN,cat,clock,32-10-10,0022_eid_dnn_32-10-10_clock_10_n03196217_1337.png
bagnet9,1,23,NaN,cat,boat,128-10-10,0023_eid_dnn_128-10-10_boat_10_n02951358_9550.png
bagnet9,1,24,NaN,bottle,bird,128-10-10,0024_eid_dnn_128-10-10_bird_10_n01616318_2334.png
bagnet9,1,25,NaN,bottle,bottle,32-10-10,0025_eid_dnn_32-10-10_bottle_10_n03937543_1658.png
bagnet9,1,26,NaN,elephant,elephant,2-10-10,0026_eid_dnn_2-10-10_elephant_10_n02504013_6731.png
bagnet9,1,27,NaN,keyboard,keyboard,4-10-10,0027_eid_dnn_4-10-10_keyboard_10_n04505470_4447.png
bagnet9,1,28,NaN,airplane,airplane,1-10-10,0028_eid_dnn_1-10-10_airplane_10_n02690373_4839.png
bagnet9,1,29,NaN,cat,keyboard,64-10-10,0029_eid_dnn_64-10-10_keyboard_10_n04505470_1651.png
bagnet9,1,30,NaN,dog,keyboard,32-10-10,0030_eid_dnn_32-10-10_keyboard_10_n03085013_20601.png
bagnet9,1,31,NaN,cat,airplane,64-10-10,0031_eid_dnn_64-10-10_airplane_10_n02690373_2217.png
bagnet9,1,32,NaN,dog,bicycle,4-10-10,0032_eid_dnn_4-10-10_bicycle_10_n03792782_25019.png
bagnet9,1,33,NaN,cat,cat,8-10-10,0033_eid_dnn_8-10-10_cat_10_n02123597_13890.png
bagnet9,1,34,NaN,boat,boat,1-10-10,0034_eid_dnn_1-10-10_boat_10_n04612504_214.png
bagnet9,1,35,NaN,elephant,chair,128-10-10,0035_eid_dnn_128-10-10_chair_10_n02791124_2555.png
bagnet9,1,36,NaN,dog,car,4-10-10,0036_eid_dnn_4-10-10_car_10_n04285008_2081.png
bagnet9,1,37,NaN,cat,dog,32-10-10,0037_eid_dnn_32-10-10_dog_10_n02094114_8202.png
bagnet9,1,38,NaN,knife,chair,64-10-10,0038_eid_dnn_64-10-10_chair_10_n04099969_4541.png
bagnet9,1,39,NaN,cat,boat,128-10-10,0039_eid_dnn_128-10-10_boat_10_n04612504_12864.png
bagnet9,1,40,NaN,airplane,airplane,4-10-10,0040_eid_dnn_4-10-10_airplane_10_n02690373_18460.png
bagnet9,1,41,NaN,cat,bottle,64-10-10,0041_eid_dnn_64-10-10_bottle_10_n03983396_8982.png
bagnet9,1,42,NaN,cat,dog,16-10-10,0042_eid_dnn_16-10-10_dog_10_n02099601_10407.png
bagnet9,1,43,NaN,cat,airplane,32-10-10,0043_eid_dnn_32-10-10_airplane_10_n02690373_5253.png
bagnet9,1,44,NaN,dog,elephant,2-10-10,0044_eid_dnn_2-10-10_elephant_10_n02504013_2832.png
bagnet9,1,45,NaN,clock,clock,1-10-10,0045_eid_dnn_1-10-10_clock_10_n02708093_8002.png
bagnet9,1,46,NaN,bottle,chair,2-10-10,0046_eid_dnn_2-10-10_chair_10_n03376595_1766.png
bagnet9,1,47,NaN,truck,truck,2-10-10,0047_eid_dnn_2-10-10_truck_10_n03417042_17616.png
bagnet9,1,48,NaN,dog,bear,16-10-10,0048_eid_dnn_16-10-10_bear_10_n02134418_2804.png
bagnet9,1,49,NaN,cat,car,64-10-10,0049_eid_dnn_64-10-10_car_10_n04285008_12101.png
bagnet9,1,50,NaN,elephant,bear,16-10-10,0050_eid_dnn_16-10-10_bear_10_n02134418_3828.png
bagnet9,1,51,NaN,dog,bird,2-10-10,0051_eid_dnn_2-10-10_bird_10_n01530575_5747.png
bagnet9,1,52,NaN,elephant,truck,128-10-10,0052_eid_dnn_128-10-10_truck_10_n03796401_3386.png
bagnet9,1,53,NaN,oven,keyboard,16-10-10,0053_eid_dnn_16-10-10_keyboard_10_n04505470_3234.png
bagnet9,1,54,NaN,airplane,truck,1-10-10,0054_eid_dnn_1-10-10_truck_10_n04467665_72639.png
bagnet9,1,55,NaN,cat,chair,32-10-10,0055_eid_dnn_32-10-10_chair_10_n04429376_27524.png
bagnet9,1,56,NaN,cat,bottle,64-10-10,0056_eid_dnn_64-10-10_bottle_10_n04557648_11440.png
bagnet9,1,57,NaN,cat,keyboard,32-10-10,0057_eid_dnn_32-10-10_keyboard_10_n03085013_20216.png
bagnet9,1,58,NaN,cat,boat,8-10-10,0058_eid_dnn_8-10-10_boat_10_n02951358_34653.png
bagnet9,1,59,NaN,keyboard,keyboard,2-10-10,0059_eid_dnn_2-10-10_keyboard_10_n03085013_8932.png
bagnet9,1,60,NaN,dog,cat,1-10-10,0060_eid_dnn_1-10-10_cat_10_n02125311_35338.png
bagnet9,1,61,NaN,dog,bicycle,16-10-10,0061_eid_dnn_16-10-10_bicycle_10_n03792782_5449.png
bagnet9,1,62,NaN,dog,bicycle,4-10-10,0062_eid_dnn_4-10-10_bicycle_10_n03792782_9432.png
bagnet9,1,63,NaN,chair,bottle,1-10-10,0063_eid_dnn_1-10-10_bottle_10_n04591713_4291.png
bagnet9,1,64,NaN,dog,truck,4-10-10,0064_eid_dnn_4-10-10_truck_10_n04467665_67057.png
bagnet9,1,65,NaN,keyboard,keyboard,1-10-10,0065_eid_dnn_1-10-10_keyboard_10_n03085013_22790.png
bagnet9,1,66,NaN,cat,dog,4-10-10,0066_eid_dnn_4-10-10_dog_10_n02086079_2896.png
bagnet9,1,67,NaN,dog,knife,8-10-10,0067_eid_dnn_8-10-10_knife_10_n03041632_40508.png
bagnet9,1,68,NaN,airplane,boat,1-10-10,0068_eid_dnn_1-10-10_boat_10_n03344393_7942.png
bagnet9,1,69,NaN,dog,bear,2-10-10,0069_eid_dnn_2-10-10_bear_10_n02134418_4352.png
bagnet9,1,70,NaN,dog,cat,16-10-10,0070_eid_dnn_16-10-10_cat_10_n02123045_5157.png
bagnet9,1,71,NaN,dog,dog,16-10-10,0071_eid_dnn_16-10-10_dog_10_n02109047_14287.png
bagnet9,1,72,NaN,truck,truck,2-10-10,0072_eid_dnn_2-10-10_truck_10_n03417042_14274.png
bagnet9,1,73,NaN,airplane,airplane,2-10-10,0073_eid_dnn_2-10-10_airplane_10_n02690373_5885.png
bagnet9,1,74,NaN,cat,cat,32-10-10,0074_eid_dnn_32-10-10_cat_10_n02123394_571.png
bagnet9,1,75,NaN,cat,cat,32-10-10,0075_eid_dnn_32-10-10_cat_10_n02123045_10171.png
bagnet9,1,76,NaN,bottle,bottle,8-10-10,0076_eid_dnn_8-10-10_bottle_10_n04560804_4909.png
bagnet9,1,77,NaN,bottle,keyboard,8-10-10,0077_eid_dnn_8-10-10_keyboard_10_n03085013_7971.png
bagnet9,1,78,NaN,dog,keyboard,16-10-10,0078_eid_dnn_16-10-10_keyboard_10_n03085013_21397.png
bagnet9,1,79,NaN,elephant,elephant,32-10-10,0079_eid_dnn_32-10-10_elephant_10_n02504458_4187.png
bagnet9,1,80,NaN,dog,clock,8-10-10,0080_eid_dnn_8-10-10_clock_10_n03196217_6689.png
bagnet9,1,81,NaN,dog,knife,4-10-10,0081_eid_dnn_4-10-10_knife_10_n03041632_26236.png
bagnet9,1,82,NaN,dog,car,8-10-10,0082_eid_dnn_8-10-10_car_10_n03100240_1262.png
bagnet9,1,83,NaN,cat,keyboard,64-10-10,0083_eid_dnn_64-10-10_keyboard_10_n04505470_5059.png
bagnet9,1,84,NaN,chair,bird,1-10-10,0084_eid_dnn_1-10-10_bird_10_n01537544_26417.png
bagnet9,1,85,NaN,elephant,bird,32-10-10,0085_eid_dnn_32-10-10_bird_10_n02009912_5714.png
bagnet9,1,86,NaN,elephant,chair,128-10-10,0086_eid_dnn_128-10-10_chair_10_n03376595_5972.png
bagnet9,1,87,NaN,bottle,chair,2-10-10,0087_eid_dnn_2-10-10_chair_10_n04429376_805.png
bagnet9,1,88,NaN,cat,bicycle,128-10-10,0088_eid_dnn_128-10-10_bicycle_10_n03792782_4083.png
bagnet9,1,89,NaN,truck,clock,1-10-10,0089_eid_dnn_1-10-10_clock_10_n02708093_798.png
bagnet9,1,90,NaN,dog,bear,1-10-10,0090_eid_dnn_1-10-10_bear_10_n02133161_1660.png
bagnet9,1,91,NaN,dog,car,8-10-10,0091_eid_dnn_8-10-10_car_10_n04285008_9464.png
bagnet9,1,92,NaN,cat,oven,16-10-10,0092_eid_dnn_16-10-10_oven_10_n04111531_3314.png
bagnet9,1,93,NaN,cat,cat,128-10-10,0093_eid_dnn_128-10-10_cat_10_n02123394_5753.png
bagnet9,1,94,NaN,boat,boat,2-10-10,0094_eid_dnn_2-10-10_boat_10_n02951358_34042.png
bagnet9,1,95,NaN,elephant,truck,64-10-10,0095_eid_dnn_64-10-10_truck_10_n03417042_7588.png
bagnet9,1,96,NaN,cat,truck,32-10-10,0096_eid_dnn_32-10-10_truck_10_n03417042_4200.png
bagnet9,1,97,NaN,airplane,airplane,4-10-10,0097_eid_dnn_4-10-10_airplane_10_n02690373_4335.png
bagnet9,1,98,NaN,cat,elephant,128-10-10,0098_eid_dnn_128-10-10_elephant_10_n02504458_6823.png
bagnet9,1,99,NaN,boat,boat,4-10-10,0099_eid_dnn_4-10-10_boat_10_n03344393_4214.png
bagnet9,1,100,NaN,keyboard,keyboard,4-10-10,0100_eid_dnn_4-10-10_keyboard_10_n03085013_22949.png
bagnet9,1,101,NaN,cat,bear,64-10-10,0101_eid_dnn_64-10-10_bear_10_n02132136_31664.png
bagnet9,1,102,NaN,dog,bottle,8-10-10,0102_eid_dnn_8-10-10_bottle_10_n03983396_1985.png
bagnet9,1,103,NaN,airplane,airplane,2-10-10,0103_eid_dnn_2-10-10_airplane_10_n02690373_9266.png
bagnet9,1,104,NaN,cat,bottle,128-10-10,0104_eid_dnn_128-10-10_bottle_10_n02823428_5961.png
bagnet9,1,105,NaN,bottle,bottle,4-10-10,0105_eid_dnn_4-10-10_bottle_10_n04579145_1856.png
bagnet9,1,106,NaN,cat,clock,64-10-10,0106_eid_dnn_64-10-10_clock_10_n02708093_7810.png
bagnet9,1,107,NaN,dog,dog,1-10-10,0107_eid_dnn_1-10-10_dog_10_n02100735_4949.png
bagnet9,1,108,NaN,cat,chair,32-10-10,0108_eid_dnn_32-10-10_chair_10_n03376595_7275.png
bagnet9,1,109,NaN,bottle,bottle,2-10-10,0109_eid_dnn_2-10-10_bottle_10_n03983396_16741.png
bagnet9,1,110,NaN,elephant,boat,32-10-10,0110_eid_dnn_32-10-10_boat_10_n04612504_8719.png
bagnet9,1,111,NaN,keyboard,chair,1-10-10,0111_eid_dnn_1-10-10_chair_10_n02791124_3570.png
bagnet9,1,112,NaN,dog,bear,32-10-10,0112_eid_dnn_32-10-10_bear_10_n02132136_9557.png
bagnet9,1,113,NaN,cat,bird,64-10-10,0113_eid_dnn_64-10-10_bird_10_n02002556_5730.png
bagnet9,1,114,NaN,dog,oven,4-10-10,0114_eid_dnn_4-10-10_oven_10_n04111531_8959.png
bagnet9,1,115,NaN,cat,cat,128-10-10,0115_eid_dnn_128-10-10_cat_10_n02123159_8101.png
bagnet9,1,116,NaN,dog,cat,8-10-10,0116_eid_dnn_8-10-10_cat_10_n02123597_8890.png
bagnet9,1,117,NaN,elephant,elephant,1-10-10,0117_eid_dnn_1-10-10_elephant_10_n02504458_220.png
bagnet9,1,118,NaN,cat,bicycle,128-10-10,0118_eid_dnn_128-10-10_bicycle_10_n02835271_2651.png
bagnet9,1,119,NaN,elephant,keyboard,64-10-10,0119_eid_dnn_64-10-10_keyboard_10_n04505470_1581.png
bagnet9,1,120,NaN,dog,truck,4-10-10,0120_eid_dnn_4-10-10_truck_10_n04467665_1719.png
bagnet9,1,121,NaN,truck,truck,2-10-10,0121_eid_dnn_2-10-10_truck_10_n04467665_30756.png
bagnet9,1,122,NaN,cat,oven,64-10-10,0122_eid_dnn_64-10-10_oven_10_n04111531_1818.png
bagnet9,1,123,NaN,cat,elephant,64-10-10,0123_eid_dnn_64-10-10_elephant_10_n02504013_2974.png
bagnet9,1,124,NaN,bird,bicycle,128-10-10,0124_eid_dnn_128-10-10_bicycle_10_n03792782_7713.png
bagnet9,1,125,NaN,dog,clock,16-10-10,0125_eid_dnn_16-10-10_clock_10_n04548280_9700.png
bagnet9,1,126,NaN,dog,bottle,16-10-10,0126_eid_dnn_16-10-10_bottle_10_n04591713_1174.png
bagnet9,1,127,NaN,elephant,bear,64-10-10,0127_eid_dnn_64-10-10_bear_10_n02134418_1395.png
bagnet9,1,128,NaN,elephant,bottle,128-10-10,0128_eid_dnn_128-10-10_bottle_10_n04591713_36.png
bagnet9,1,129,NaN,dog,knife,8-10-10,0129_eid_dnn_8-10-10_knife_10_n03041632_21034.png
bagnet9,1,130,NaN,bicycle,bicycle,1-10-10,0130_eid_dnn_1-10-10_bicycle_10_n03792782_11115.png
bagnet9,1,131,NaN,dog,truck,16-10-10,0131_eid_dnn_16-10-10_truck_10_n03417042_5381.png
bagnet9,1,132,NaN,cat,boat,64-10-10,0132_eid_dnn_64-10-10_boat_10_n04612504_15258.png
bagnet9,1,133,NaN,truck,boat,2-10-10,0133_eid_dnn_2-10-10_boat_10_n03662601_11972.png
bagnet9,1,134,NaN,cat,dog,64-10-10,0134_eid_dnn_64-10-10_dog_10_n02092002_11459.png
bagnet9,1,135,NaN,cat,clock,64-10-10,0135_eid_dnn_64-10-10_clock_10_n04548280_6605.png
bagnet9,1,136,NaN,cat,boat,64-10-10,0136_eid_dnn_64-10-10_boat_10_n03662601_5600.png
bagnet9,1,137,NaN,dog,bear,32-10-10,0137_eid_dnn_32-10-10_bear_10_n02134084_8153.png
bagnet9,1,138,NaN,cat,cat,64-10-10,0138_eid_dnn_64-10-10_cat_10_n02124075_9225.png
bagnet9,1,139,NaN,dog,bicycle,8-10-10,0139_eid_dnn_8-10-10_bicycle_10_n03792782_3591.png
bagnet9,1,140,NaN,cat,dog,64-10-10,0140_eid_dnn_64-10-10_dog_10_n02107142_31661.png
bagnet9,1,141,NaN,dog,elephant,8-10-10,0141_eid_dnn_8-10-10_elephant_10_n02504458_651.png
bagnet9,1,142,NaN,elephant,dog,128-10-10,0142_eid_dnn_128-10-10_dog_10_n02110958_15217.png
bagnet9,1,143,NaN,airplane,oven,4-10-10,0143_eid_dnn_4-10-10_oven_10_n04111531_523.png
bagnet9,1,144,NaN,bicycle,car,4-10-10,0144_eid_dnn_4-10-10_car_10_n02814533_42884.png
bagnet9,1,145,NaN,cat,car,64-10-10,0145_eid_dnn_64-10-10_car_10_n04285008_8017.png
bagnet9,1,146,NaN,car,car,1-10-10,0146_eid_dnn_1-10-10_car_10_n03100240_16766.png
bagnet9,1,147,NaN,dog,elephant,8-10-10,0147_eid_dnn_8-10-10_elephant_10_n02504458_4593.png
bagnet9,1,148,NaN,cat,chair,64-10-10,0148_eid_dnn_64-10-10_chair_10_n02791124_1358.png
bagnet9,1,149,NaN,dog,dog,16-10-10,0149_eid_dnn_16-10-10_dog_10_n02095314_5363.png
bagnet9,1,150,NaN,chair,clock,8-10-10,0150_eid_dnn_8-10-10_clock_10_n04548280_1413.png
bagnet9,1,151,NaN,dog,dog,1-10-10,0151_eid_dnn_1-10-10_dog_10_n02105641_10948.png
bagnet9,1,152,NaN,dog,dog,1-10-10,0152_eid_dnn_1-10-10_dog_10_n02113624_1691.png
bagnet9,1,153,NaN,truck,car,4-10-10,0153_eid_dnn_4-10-10_car_10_n03100240_2235.png
bagnet9,1,154,NaN,dog,chair,2-10-10,0154_eid_dnn_2-10-10_chair_10_n04099969_56470.png
bagnet9,1,155,NaN,chair,oven,2-10-10,0155_eid_dnn_2-10-10_oven_10_n04111531_5429.png
bagnet9,1,156,NaN,cat,keyboard,64-10-10,0156_eid_dnn_64-10-10_keyboard_10_n03085013_19317.png
bagnet9,1,157,NaN,cat,bird,64-10-10,0157_eid_dnn_64-10-10_bird_10_n01601694_19650.png
bagnet9,1,158,NaN,cat,clock,128-10-10,0158_eid_dnn_128-10-10_clock_10_n03196217_11199.png
bagnet9,1,159,NaN,cat,bottle,32-10-10,0159_eid_dnn_32-10-10_bottle_10_n03937543_2209.png
bagnet9,1,160,NaN,cat,car,64-10-10,0160_eid_dnn_64-10-10_car_10_n03100240_16939.png
bagnet9,1,161,NaN,dog,bottle,8-10-10,0161_eid_dnn_8-10-10_bottle_10_n04591713_2501.png
bagnet9,1,162,NaN,dog,airplane,16-10-10,0162_eid_dnn_16-10-10_airplane_10_n02690373_10395.png
bagnet9,1,163,NaN,dog,oven,8-10-10,0163_eid_dnn_8-10-10_oven_10_n04111531_3286.png
bagnet9,1,164,NaN,cat,boat,64-10-10,0164_eid_dnn_64-10-10_boat_10_n04273569_13401.png
bagnet9,1,165,NaN,elephant,elephant,64-10-10,0165_eid_dnn_64-10-10_elephant_10_n02504458_12776.png
bagnet9,1,166,NaN,dog,bird,2-10-10,0166_eid_dnn_2-10-10_bird_10_n01828970_997.png
bagnet9,1,167,NaN,dog,bear,8-10-10,0167_eid_dnn_8-10-10_bear_10_n02132136_10318.png
bagnet9,1,168,NaN,elephant,oven,32-10-10,0168_eid_dnn_32-10-10_oven_10_n04111531_7883.png
bagnet9,1,169,NaN,cat,clock,128-10-10,0169_eid_dnn_128-10-10_clock_10_n02708093_725.png
bagnet9,1,170,NaN,dog,bottle,16-10-10,0170_eid_dnn_16-10-10_bottle_10_n04557648_2052.png
bagnet9,1,171,NaN,dog,keyboard,32-10-10,0171_eid_dnn_32-10-10_keyboard_10_n04505470_5036.png
bagnet9,1,172,NaN,dog,elephant,8-10-10,0172_eid_dnn_8-10-10_elephant_10_n02504458_13352.png
bagnet9,1,173,NaN,dog,chair,4-10-10,0173_eid_dnn_4-10-10_chair_10_n04429376_30620.png
bagnet9,1,174,NaN,cat,boat,16-10-10,0174_eid_dnn_16-10-10_boat_10_n03662601_2980.png
bagnet9,1,175,NaN,dog,boat,8-10-10,0175_eid_dnn_8-10-10_boat_10_n03662601_4734.png
bagnet9,1,176,NaN,dog,bear,2-10-10,0176_eid_dnn_2-10-10_bear_10_n02134418_4754.png
bagnet9,1,177,NaN,elephant,elephant,2-10-10,0177_eid_dnn_2-10-10_elephant_10_n02504013_8522.png
bagnet9,1,178,NaN,cat,bottle,64-10-10,0178_eid_dnn_64-10-10_bottle_10_n03937543_4863.png
bagnet9,1,179,NaN,cat,car,16-10-10,0179_eid_dnn_16-10-10_car_10_n04285008_10802.png
bagnet9,1,180,NaN,elephant,knife,64-10-10,0180_eid_dnn_64-10-10_knife_10_n03041632_6708.png
bagnet9,1,181,NaN,dog,dog,1-10-10,0181_eid_dnn_1-10-10_dog_10_n02107142_61109.png
bagnet9,1,182,NaN,boat,clock,2-10-10,0182_eid_dnn_2-10-10_clock_10_n03196217_8139.png
bagnet9,1,183,NaN,elephant,elephant,1-10-10,0183_eid_dnn_1-10-10_elephant_10_n02504458_6611.png
bagnet9,1,184,NaN,cat,truck,64-10-10,0184_eid_dnn_64-10-10_truck_10_n04467665_4401.png
bagnet9,1,185,NaN,boat,boat,4-10-10,0185_eid_dnn_4-10-10_boat_10_n03344393_732.png
bagnet9,1,186,NaN,knife,knife,4-10-10,0186_eid_dnn_4-10-10_knife_10_n03041632_41381.png
bagnet9,1,187,NaN,cat,oven,32-10-10,0187_eid_dnn_32-10-10_oven_10_n04111531_22715.png
bagnet9,1,188,NaN,cat,cat,16-10-10,0188_eid_dnn_16-10-10_cat_10_n02123045_3568.png
bagnet9,1,189,NaN,bottle,truck,2-10-10,0189_eid_dnn_2-10-10_truck_10_n03796401_18976.png
bagnet9,1,190,NaN,dog,oven,8-10-10,0190_eid_dnn_8-10-10_oven_10_n04111531_15710.png
bagnet9,1,191,NaN,elephant,elephant,32-10-10,0191_eid_dnn_32-10-10_elephant_10_n02504013_7232.png
bagnet9,1,192,NaN,cat,clock,64-10-10,0192_eid_dnn_64-10-10_clock_10_n02708093_5126.png
bagnet9,1,193,NaN,cat,cat,32-10-10,0193_eid_dnn_32-10-10_cat_10_n02123159_1598.png
bagnet9,1,194,NaN,truck,car,1-10-10,0194_eid_dnn_1-10-10_car_10_n04285008_1661.png
bagnet9,1,195,NaN,clock,clock,2-10-10,0195_eid_dnn_2-10-10_clock_10_n02708093_5551.png
bagnet9,1,196,NaN,knife,airplane,128-10-10,0196_eid_dnn_128-10-10_airplane_10_n02690373_693.png
bagnet9,1,197,NaN,elephant,elephant,2-10-10,0197_eid_dnn_2-10-10_elephant_10_n02504013_3409.png
bagnet9,1,198,NaN,cat,dog,64-10-10,0198_eid_dnn_64-10-10_dog_10_n02113712_8182.png
bagnet9,1,199,NaN,bottle,bottle,1-10-10,0199_eid_dnn_1-10-10_bottle_10_n03983396_8322.png
bagnet9,1,200,NaN,elephant,keyboard,64-10-10,0200_eid_dnn_64-10-10_keyboard_10_n04505470_1040.png
bagnet9,1,201,NaN,cat,oven,32-10-10,0201_eid_dnn_32-10-10_oven_10_n04111531_11230.png
bagnet9,1,202,NaN,cat,cat,1-10-10,0202_eid_dnn_1-10-10_cat_10_n02123394_6269.png
bagnet9,1,203,NaN,dog,elephant,2-10-10,0203_eid_dnn_2-10-10_elephant_10_n02504013_2075.png
bagnet9,1,204,NaN,dog,bear,1-10-10,0204_eid_dnn_1-10-10_bear_10_n02133161_3795.png
bagnet9,1,205,NaN,dog,oven,2-10-10,0205_eid_dnn_2-10-10_oven_10_n04111531_4322.png
bagnet9,1,206,NaN,dog,bottle,4-10-10,0206_eid_dnn_4-10-10_bottle_10_n03937543_5799.png
bagnet9,1,207,NaN,cat,keyboard,8-10-10,0207_eid_dnn_8-10-10_keyboard_10_n04505470_4414.png
bagnet9,1,208,NaN,dog,dog,4-10-10,0208_eid_dnn_4-10-10_dog_10_n02091032_8315.png
bagnet9,1,209,NaN,knife,knife,2-10-10,0209_eid_dnn_2-10-10_knife_10_n03041632_39952.png
bagnet9,1,210,NaN,dog,chair,8-10-10,0210_eid_dnn_8-10-10_chair_10_n02791124_634.png
bagnet9,1,211,NaN,cat,boat,32-10-10,0211_eid_dnn_32-10-10_boat_10_n03344393_3355.png
bagnet9,1,212,NaN,cat,dog,32-10-10,0212_eid_dnn_32-10-10_dog_10_n02102040_7188.png
bagnet9,1,213,NaN,chair,chair,2-10-10,0213_eid_dnn_2-10-10_chair_10_n02791124_8711.png
bagnet9,1,214,NaN,elephant,bear,64-10-10,0214_eid_dnn_64-10-10_bear_10_n02132136_6002.png
bagnet9,1,215,NaN,dog,boat,4-10-10,0215_eid_dnn_4-10-10_boat_10_n02951358_30184.png
bagnet9,1,216,NaN,elephant,bottle,128-10-10,0216_eid_dnn_128-10-10_bottle_10_n02823428_3414.png
bagnet9,1,217,NaN,elephant,truck,4-10-10,0217_eid_dnn_4-10-10_truck_10_n04467665_13231.png
bagnet9,1,218,NaN,keyboard,chair,4-10-10,0218_eid_dnn_4-10-10_chair_10_n04099969_8063.png
bagnet9,1,219,NaN,bird,bird,4-10-10,0219_eid_dnn_4-10-10_bird_10_n01534433_10234.png
bagnet9,1,220,NaN,dog,elephant,4-10-10,0220_eid_dnn_4-10-10_elephant_10_n02504013_12533.png
bagnet9,1,221,NaN,airplane,knife,16-10-10,0221_eid_dnn_16-10-10_knife_10_n03041632_18995.png
bagnet9,1,222,NaN,cat,chair,32-10-10,0222_eid_dnn_32-10-10_chair_10_n04429376_7123.png
bagnet9,1,223,NaN,cat,clock,64-10-10,0223_eid_dnn_64-10-10_clock_10_n03196217_9065.png
bagnet9,1,224,NaN,cat,dog,4-10-10,0224_eid_dnn_4-10-10_dog_10_n02086079_4143.png
bagnet9,1,225,NaN,dog,bear,4-10-10,0225_eid_dnn_4-10-10_bear_10_n02132136_20162.png
bagnet9,1,226,NaN,bottle,bottle,1-10-10,0226_eid_dnn_1-10-10_bottle_10_n03983396_4165.png
bagnet9,1,227,NaN,dog,bird,4-10-10,0227_eid_dnn_4-10-10_bird_10_n01824575_4470.png
bagnet9,1,228,NaN,cat,oven,64-10-10,0228_eid_dnn_64-10-10_oven_10_n04111531_9695.png
bagnet9,1,229,NaN,elephant,bottle,64-10-10,0229_eid_dnn_64-10-10_bottle_10_n02823428_23181.png
bagnet9,1,230,NaN,bicycle,bicycle,2-10-10,0230_eid_dnn_2-10-10_bicycle_10_n02835271_13674.png
bagnet9,1,231,NaN,chair,chair,2-10-10,0231_eid_dnn_2-10-10_chair_10_n04429376_55747.png
bagnet9,1,232,NaN,elephant,boat,32-10-10,0232_eid_dnn_32-10-10_boat_10_n02951358_8346.png
bagnet9,1,233,NaN,cat,elephant,16-10-10,0233_eid_dnn_16-10-10_elephant_10_n02504013_1088.png
bagnet9,1,234,NaN,dog,car,8-10-10,0234_eid_dnn_8-10-10_car_10_n03100240_11191.png
bagnet9,1,235,NaN,dog,chair,8-10-10,0235_eid_dnn_8-10-10_chair_10_n04099969_19966.png
bagnet9,1,236,NaN,cat,bicycle,32-10-10,0236_eid_dnn_32-10-10_bicycle_10_n03792782_15016.png
bagnet9,1,237,NaN,bird,boat,128-10-10,0237_eid_dnn_128-10-10_boat_10_n02951358_17867.png
bagnet9,1,238,NaN,cat,cat,2-10-10,0238_eid_dnn_2-10-10_cat_10_n02123045_2364.png
bagnet9,1,239,NaN,dog,bear,2-10-10,0239_eid_dnn_2-10-10_bear_10_n02132136_9433.png
bagnet9,1,240,NaN,cat,clock,32-10-10,0240_eid_dnn_32-10-10_clock_10_n03196217_3167.png
bagnet9,1,241,NaN,dog,clock,32-10-10,0241_eid_dnn_32-10-10_clock_10_n03196217_3129.png
bagnet9,1,242,NaN,cat,keyboard,128-10-10,0242_eid_dnn_128-10-10_keyboard_10_n03085013_6067.png
bagnet9,1,243,NaN,keyboard,keyboard,2-10-10,0243_eid_dnn_2-10-10_keyboard_10_n03085013_24648.png
bagnet9,1,244,NaN,cat,oven,32-10-10,0244_eid_dnn_32-10-10_oven_10_n04111531_6695.png
bagnet9,1,245,NaN,dog,dog,4-10-10,0245_eid_dnn_4-10-10_dog_10_n02111500_4875.png
bagnet9,1,246,NaN,cat,oven,32-10-10,0246_eid_dnn_32-10-10_oven_10_n04111531_13018.png
bagnet9,1,247,NaN,cat,keyboard,128-10-10,0247_eid_dnn_128-10-10_keyboard_10_n03085013_23030.png
bagnet9,1,248,NaN,dog,cat,8-10-10,0248_eid_dnn_8-10-10_cat_10_n02123045_8409.png
bagnet9,1,249,NaN,dog,bicycle,4-10-10,0249_eid_dnn_4-10-10_bicycle_10_n03792782_37777.png
bagnet9,1,250,NaN,cat,airplane,64-10-10,0250_eid_dnn_64-10-10_airplane_10_n02690373_614.png
bagnet9,1,251,NaN,elephant,keyboard,128-10-10,0251_eid_dnn_128-10-10_keyboard_10_n03085013_19775.png
bagnet9,1,252,NaN,dog,bear,8-10-10,0252_eid_dnn_8-10-10_bear_10_n02133161_1244.png
bagnet9,1,253,NaN,airplane,keyboard,2-10-10,0253_eid_dnn_2-10-10_keyboard_10_n04505470_4368.png
bagnet9,1,254,NaN,dog,oven,2-10-10,0254_eid_dnn_2-10-10_oven_10_n04111531_7728.png
bagnet9,1,255,NaN,dog,clock,8-10-10,0255_eid_dnn_8-10-10_clock_10_n04548280_1.png
bagnet9,1,256,NaN,cat,cat,64-10-10,0256_eid_dnn_64-10-10_cat_10_n02123394_3062.png
bagnet9,1,257,NaN,elephant,elephant,2-10-10,0257_eid_dnn_2-10-10_elephant_10_n02504013_466.png
bagnet9,1,258,NaN,dog,elephant,1-10-10,0258_eid_dnn_1-10-10_elephant_10_n02504013_6275.png
bagnet9,1,259,NaN,keyboard,bird,4-10-10,0259_eid_dnn_4-10-10_bird_10_n01560419_5466.png
bagnet9,1,260,NaN,dog,truck,8-10-10,0260_eid_dnn_8-10-10_truck_10_n03796401_5227.png
bagnet9,1,261,NaN,bicycle,chair,2-10-10,0261_eid_dnn_2-10-10_chair_10_n04099969_25124.png
bagnet9,1,262,NaN,knife,elephant,64-10-10,0262_eid_dnn_64-10-10_elephant_10_n02504013_7209.png
bagnet9,1,263,NaN,dog,cat,1-10-10,0263_eid_dnn_1-10-10_cat_10_n02123597_4756.png
bagnet9,1,264,NaN,cat,bicycle,16-10-10,0264_eid_dnn_16-10-10_bicycle_10_n02835271_4654.png
bagnet9,1,265,NaN,keyboard,keyboard,1-10-10,0265_eid_dnn_1-10-10_keyboard_10_n04505470_2389.png
bagnet9,1,266,NaN,cat,knife,128-10-10,0266_eid_dnn_128-10-10_knife_10_n03041632_379.png
bagnet9,1,267,NaN,dog,clock,8-10-10,0267_eid_dnn_8-10-10_clock_10_n02708093_899.png
bagnet9,1,268,NaN,bird,truck,128-10-10,0268_eid_dnn_128-10-10_truck_10_n03417042_10154.png
bagnet9,1,269,NaN,bottle,bottle,2-10-10,0269_eid_dnn_2-10-10_bottle_10_n04579145_3415.png
bagnet9,1,270,NaN,dog,chair,16-10-10,0270_eid_dnn_16-10-10_chair_10_n02791124_146.png
bagnet9,1,271,NaN,cat,elephant,128-10-10,0271_eid_dnn_128-10-10_elephant_10_n02504458_2835.png
bagnet9,1,272,NaN,dog,bicycle,1-10-10,0272_eid_dnn_1-10-10_bicycle_10_n03792782_13835.png
bagnet9,1,273,NaN,elephant,bicycle,32-10-10,0273_eid_dnn_32-10-10_bicycle_10_n02835271_12926.png
bagnet9,1,274,NaN,dog,dog,2-10-10,0274_eid_dnn_2-10-10_dog_10_n02110185_11605.png
bagnet9,1,275,NaN,cat,elephant,128-10-10,0275_eid_dnn_128-10-10_elephant_10_n02504458_3091.png
bagnet9,1,276,NaN,elephant,chair,128-10-10,0276_eid_dnn_128-10-10_chair_10_n04099969_5233.png
bagnet9,1,277,NaN,dog,dog,2-10-10,0277_eid_dnn_2-10-10_dog_10_n02097209_7628.png
bagnet9,1,278,NaN,dog,cat,8-10-10,0278_eid_dnn_8-10-10_cat_10_n02123597_10941.png
bagnet9,1,279,NaN,dog,clock,16-10-10,0279_eid_dnn_16-10-10_clock_10_n02708093_3006.png
bagnet9,1,280,NaN,truck,truck,1-10-10,0280_eid_dnn_1-10-10_truck_10_n03796401_26620.png
bagnet9,1,281,NaN,elephant,bear,128-10-10,0281_eid_dnn_128-10-10_bear_10_n02134418_12733.png
bagnet9,1,282,NaN,keyboard,knife,2-10-10,0282_eid_dnn_2-10-10_knife_10_n03041632_4806.png
bagnet9,1,283,NaN,keyboard,oven,4-10-10,0283_eid_dnn_4-10-10_oven_10_n04111531_17922.png
bagnet9,1,284,NaN,bottle,bottle,1-10-10,0284_eid_dnn_1-10-10_bottle_10_n04579145_6818.png
bagnet9,1,285,NaN,keyboard,keyboard,4-10-10,0285_eid_dnn_4-10-10_keyboard_10_n04505470_494.png
bagnet9,1,286,NaN,dog,cat,8-10-10,0286_eid_dnn_8-10-10_cat_10_n02123045_10834.png
bagnet9,1,287,NaN,cat,cat,128-10-10,0287_eid_dnn_128-10-10_cat_10_n02123394_176.png
bagnet9,1,288,NaN,bird,chair,128-10-10,0288_eid_dnn_128-10-10_chair_10_n03376595_2891.png
bagnet9,1,289,NaN,dog,dog,8-10-10,0289_eid_dnn_8-10-10_dog_10_n02093256_5647.png
bagnet9,1,290,NaN,cat,knife,64-10-10,0290_eid_dnn_64-10-10_knife_10_n03041632_33326.png
bagnet9,1,291,NaN,airplane,airplane,8-10-10,0291_eid_dnn_8-10-10_airplane_10_n02690373_2856.png
bagnet9,1,292,NaN,cat,bicycle,128-10-10,0292_eid_dnn_128-10-10_bicycle_10_n03792782_9651.png
bagnet9,1,293,NaN,dog,bicycle,2-10-10,0293_eid_dnn_2-10-10_bicycle_10_n02835271_7438.png
bagnet9,1,294,NaN,cat,bicycle,128-10-10,0294_eid_dnn_128-10-10_bicycle_10_n02835271_26639.png
bagnet9,1,295,NaN,bird,keyboard,8-10-10,0295_eid_dnn_8-10-10_keyboard_10_n04505470_4458.png
bagnet9,1,296,NaN,cat,dog,64-10-10,0296_eid_dnn_64-10-10_dog_10_n02106662_24847.png
bagnet9,1,297,NaN,elephant,chair,32-10-10,0297_eid_dnn_32-10-10_chair_10_n03376595_8995.png
bagnet9,1,298,NaN,cat,bicycle,64-10-10,0298_eid_dnn_64-10-10_bicycle_10_n03792782_6030.png
bagnet9,1,299,NaN,dog,elephant,4-10-10,0299_eid_dnn_4-10-10_elephant_10_n02504458_7258.png
bagnet9,1,300,NaN,cat,boat,128-10-10,0300_eid_dnn_128-10-10_boat_10_n03662601_23903.png
bagnet9,1,301,NaN,elephant,bird,16-10-10,0301_eid_dnn_16-10-10_bird_10_n02002724_578.png
bagnet9,1,302,NaN,cat,chair,64-10-10,0302_eid_dnn_64-10-10_chair_10_n03376595_2393.png
bagnet9,1,303,NaN,airplane,boat,16-10-10,0303_eid_dnn_16-10-10_boat_10_n03662601_5118.png
bagnet9,1,304,NaN,dog,chair,8-10-10,0304_eid_dnn_8-10-10_chair_10_n04429376_21845.png
bagnet9,1,305,NaN,cat,dog,8-10-10,0305_eid_dnn_8-10-10_dog_10_n02102040_2216.png
bagnet9,1,306,NaN,airplane,airplane,8-10-10,0306_eid_dnn_8-10-10_airplane_10_n02690373_3032.png
bagnet9,1,307,NaN,cat,dog,8-10-10,0307_eid_dnn_8-10-10_dog_10_n02100735_2228.png
bagnet9,1,308,NaN,dog,bird,8-10-10,0308_eid_dnn_8-10-10_bird_10_n01532829_13864.png
bagnet9,1,309,NaN,cat,bird,64-10-10,0309_eid_dnn_64-10-10_bird_10_n01601694_13787.png
bagnet9,1,310,NaN,cat,bear,64-10-10,0310_eid_dnn_64-10-10_bear_10_n02134084_22150.png
bagnet9,1,311,NaN,dog,knife,16-10-10,0311_eid_dnn_16-10-10_knife_10_n03041632_29427.png
bagnet9,1,312,NaN,dog,chair,4-10-10,0312_eid_dnn_4-10-10_chair_10_n02791124_2804.png
bagnet9,1,313,NaN,keyboard,bottle,4-10-10,0313_eid_dnn_4-10-10_bottle_10_n04591713_5046.png
bagnet9,1,314,NaN,cat,bicycle,128-10-10,0314_eid_dnn_128-10-10_bicycle_10_n03792782_4210.png
bagnet9,1,315,NaN,cat,cat,128-10-10,0315_eid_dnn_128-10-10_cat_10_n02123159_1596.png
bagnet9,1,316,NaN,airplane,car,2-10-10,0316_eid_dnn_2-10-10_car_10_n03100240_17588.png
bagnet9,1,317,NaN,dog,keyboard,4-10-10,0317_eid_dnn_4-10-10_keyboard_10_n03085013_23295.png
bagnet9,1,318,NaN,elephant,oven,32-10-10,0318_eid_dnn_32-10-10_oven_10_n04111531_4879.png
bagnet9,1,319,NaN,dog,keyboard,32-10-10,0319_eid_dnn_32-10-10_keyboard_10_n04505470_4569.png
bagnet9,1,320,NaN,dog,truck,8-10-10,0320_eid_dnn_8-10-10_truck_10_n04467665_24190.png
bagnet9,1,321,NaN,dog,cat,4-10-10,0321_eid_dnn_4-10-10_cat_10_n02124075_15405.png
bagnet9,1,322,NaN,dog,knife,8-10-10,0322_eid_dnn_8-10-10_knife_10_n03041632_24817.png
bagnet9,1,323,NaN,cat,elephant,64-10-10,0323_eid_dnn_64-10-10_elephant_10_n02504013_5505.png
bagnet9,1,324,NaN,airplane,airplane,8-10-10,0324_eid_dnn_8-10-10_airplane_10_n02690373_8846.png
bagnet9,1,325,NaN,cat,truck,32-10-10,0325_eid_dnn_32-10-10_truck_10_n04467665_50806.png
bagnet9,1,326,NaN,dog,elephant,4-10-10,0326_eid_dnn_4-10-10_elephant_10_n02504458_5539.png
bagnet9,1,327,NaN,boat,boat,1-10-10,0327_eid_dnn_1-10-10_boat_10_n03344393_1178.png
bagnet9,1,328,NaN,dog,truck,4-10-10,0328_eid_dnn_4-10-10_truck_10_n04467665_10025.png
bagnet9,1,329,NaN,bottle,clock,4-10-10,0329_eid_dnn_4-10-10_clock_10_n02708093_2869.png
bagnet9,1,330,NaN,cat,bottle,8-10-10,0330_eid_dnn_8-10-10_bottle_10_n03983396_4879.png
bagnet9,1,331,NaN,cat,keyboard,128-10-10,0331_eid_dnn_128-10-10_keyboard_10_n03085013_10367.png
bagnet9,1,332,NaN,elephant,bird,64-10-10,0332_eid_dnn_64-10-10_bird_10_n01860187_21300.png
bagnet9,1,333,NaN,cat,knife,32-10-10,0333_eid_dnn_32-10-10_knife_10_n03041632_5302.png
bagnet9,1,334,NaN,dog,bear,4-10-10,0334_eid_dnn_4-10-10_bear_10_n02134084_5274.png
bagnet9,1,335,NaN,dog,knife,4-10-10,0335_eid_dnn_4-10-10_knife_10_n03041632_48816.png
bagnet9,1,336,NaN,cat,elephant,16-10-10,0336_eid_dnn_16-10-10_elephant_10_n02504013_3295.png
bagnet9,1,337,NaN,cat,truck,128-10-10,0337_eid_dnn_128-10-10_truck_10_n03417042_2478.png
bagnet9,1,338,NaN,cat,oven,32-10-10,0338_eid_dnn_32-10-10_oven_10_n04111531_5350.png
bagnet9,1,339,NaN,airplane,airplane,8-10-10,0339_eid_dnn_8-10-10_airplane_10_n02690373_1663.png
bagnet9,1,340,NaN,boat,boat,4-10-10,0340_eid_dnn_4-10-10_boat_10_n03344393_1422.png
bagnet9,1,341,NaN,cat,cat,32-10-10,0341_eid_dnn_32-10-10_cat_10_n02123159_3312.png
bagnet9,1,342,NaN,cat,chair,64-10-10,0342_eid_dnn_64-10-10_chair_10_n03376595_6171.png
bagnet9,1,343,NaN,dog,bottle,8-10-10,0343_eid_dnn_8-10-10_bottle_10_n04591713_1616.png
bagnet9,1,344,NaN,cat,bear,128-10-10,0344_eid_dnn_128-10-10_bear_10_n02133161_1197.png
bagnet9,1,345,NaN,keyboard,truck,4-10-10,0345_eid_dnn_4-10-10_truck_10_n04467665_663.png
bagnet9,1,346,NaN,dog,bear,4-10-10,0346_eid_dnn_4-10-10_bear_10_n02132136_2771.png
bagnet9,1,347,NaN,cat,cat,16-10-10,0347_eid_dnn_16-10-10_cat_10_n02123394_12.png
bagnet9,1,348,NaN,boat,car,8-10-10,0348_eid_dnn_8-10-10_car_10_n04285008_1795.png
bagnet9,1,349,NaN,bear,boat,4-10-10,0349_eid_dnn_4-10-10_boat_10_n04273569_1023.png
bagnet9,1,350,NaN,boat,boat,1-10-10,0350_eid_dnn_1-10-10_boat_10_n03662601_21775.png
bagnet9,1,351,NaN,clock,clock,1-10-10,0351_eid_dnn_1-10-10_clock_10_n03196217_71.png
bagnet9,1,352,NaN,keyboard,keyboard,4-10-10,0352_eid_dnn_4-10-10_keyboard_10_n04505470_3122.png
bagnet9,1,353,NaN,cat,dog,32-10-10,0353_eid_dnn_32-10-10_dog_10_n02099849_4640.png
bagnet9,1,354,NaN,cat,bottle,64-10-10,0354_eid_dnn_64-10-10_bottle_10_n02823428_6418.png
bagnet9,1,355,NaN,dog,car,8-10-10,0355_eid_dnn_8-10-10_car_10_n04285008_11704.png
bagnet9,1,356,NaN,knife,clock,32-10-10,0356_eid_dnn_32-10-10_clock_10_n02708093_3544.png
bagnet9,1,357,NaN,dog,clock,8-10-10,0357_eid_dnn_8-10-10_clock_10_n04548280_4599.png
bagnet9,1,358,NaN,cat,car,128-10-10,0358_eid_dnn_128-10-10_car_10_n03100240_6259.png
bagnet9,1,359,NaN,dog,boat,8-10-10,0359_eid_dnn_8-10-10_boat_10_n04273569_3401.png
bagnet9,1,360,NaN,cat,truck,64-10-10,0360_eid_dnn_64-10-10_truck_10_n04467665_13898.png
bagnet9,1,361,NaN,keyboard,clock,2-10-10,0361_eid_dnn_2-10-10_clock_10_n03196217_1499.png
bagnet9,1,362,NaN,dog,car,4-10-10,0362_eid_dnn_4-10-10_car_10_n03100240_8702.png
bagnet9,1,363,NaN,dog,bear,4-10-10,0363_eid_dnn_4-10-10_bear_10_n02134418_1770.png
bagnet9,1,364,NaN,dog,bear,16-10-10,0364_eid_dnn_16-10-10_bear_10_n02132136_32838.png
bagnet9,1,365,NaN,boat,truck,4-10-10,0365_eid_dnn_4-10-10_truck_10_n04467665_68331.png
bagnet9,1,366,NaN,airplane,airplane,1-10-10,0366_eid_dnn_1-10-10_airplane_10_n02690373_4506.png
bagnet9,1,367,NaN,keyboard,car,2-10-10,0367_eid_dnn_2-10-10_car_10_n03100240_5308.png
bagnet9,1,368,NaN,oven,cat,2-10-10,0368_eid_dnn_2-10-10_cat_10_n02124075_15345.png
bagnet9,1,369,NaN,cat,bicycle,128-10-10,0369_eid_dnn_128-10-10_bicycle_10_n03792782_50972.png
bagnet9,1,370,NaN,dog,knife,8-10-10,0370_eid_dnn_8-10-10_knife_10_n03041632_19098.png
bagnet9,1,371,NaN,cat,bottle,128-10-10,0371_eid_dnn_128-10-10_bottle_10_n04560804_15963.png
bagnet9,1,372,NaN,dog,bottle,8-10-10,0372_eid_dnn_8-10-10_bottle_10_n04557648_7809.png
bagnet9,1,373,NaN,airplane,airplane,1-10-10,0373_eid_dnn_1-10-10_airplane_10_n02690373_17764.png
bagnet9,1,374,NaN,elephant,elephant,64-10-10,0374_eid_dnn_64-10-10_elephant_10_n02504013_7322.png
bagnet9,1,375,NaN,bear,bear,2-10-10,0375_eid_dnn_2-10-10_bear_10_n02134084_2959.png
bagnet9,1,376,NaN,dog,bird,2-10-10,0376_eid_dnn_2-10-10_bird_10_n01622779_6563.png
bagnet9,1,377,NaN,dog,knife,16-10-10,0377_eid_dnn_16-10-10_knife_10_n03041632_19620.png
bagnet9,1,378,NaN,cat,bird,4-10-10,0378_eid_dnn_4-10-10_bird_10_n01530575_35977.png
bagnet9,1,379,NaN,cat,cat,128-10-10,0379_eid_dnn_128-10-10_cat_10_n02123394_1757.png
bagnet9,1,380,NaN,dog,dog,2-10-10,0380_eid_dnn_2-10-10_dog_10_n02093647_6358.png
bagnet9,1,381,NaN,bicycle,boat,1-10-10,0381_eid_dnn_1-10-10_boat_10_n02951358_1470.png
bagnet9,1,382,NaN,cat,elephant,128-10-10,0382_eid_dnn_128-10-10_elephant_10_n02504458_2026.png
bagnet9,1,383,NaN,cat,elephant,32-10-10,0383_eid_dnn_32-10-10_elephant_10_n02504458_3730.png
bagnet9,1,384,NaN,dog,keyboard,8-10-10,0384_eid_dnn_8-10-10_keyboard_10_n03085013_20881.png
bagnet9,1,385,NaN,dog,dog,4-10-10,0385_eid_dnn_4-10-10_dog_10_n02105641_8188.png
bagnet9,1,386,NaN,bottle,clock,32-10-10,0386_eid_dnn_32-10-10_clock_10_n03196217_6320.png
bagnet9,1,387,NaN,dog,car,32-10-10,0387_eid_dnn_32-10-10_car_10_n04285008_12333.png
bagnet9,1,388,NaN,knife,knife,2-10-10,0388_eid_dnn_2-10-10_knife_10_n03041632_47743.png
bagnet9,1,389,NaN,bottle,boat,8-10-10,0389_eid_dnn_8-10-10_boat_10_n04612504_8073.png
bagnet9,1,390,NaN,cat,knife,128-10-10,0390_eid_dnn_128-10-10_knife_10_n03041632_20770.png
bagnet9,1,391,NaN,cat,car,32-10-10,0391_eid_dnn_32-10-10_car_10_n02814533_28783.png
bagnet9,1,392,NaN,cat,car,128-10-10,0392_eid_dnn_128-10-10_car_10_n02814533_13533.png
bagnet9,1,393,NaN,dog,dog,16-10-10,0393_eid_dnn_16-10-10_dog_10_n02104029_8137.png
bagnet9,1,394,NaN,dog,bicycle,4-10-10,0394_eid_dnn_4-10-10_bicycle_10_n02835271_3990.png
bagnet9,1,395,NaN,bear,bear,4-10-10,0395_eid_dnn_4-10-10_bear_10_n02132136_24311.png
bagnet9,1,396,NaN,truck,truck,2-10-10,0396_eid_dnn_2-10-10_truck_10_n03796401_6966.png
bagnet9,1,397,NaN,knife,knife,1-10-10,0397_eid_dnn_1-10-10_knife_10_n03041632_8468.png
bagnet9,1,398,NaN,cat,elephant,128-10-10,0398_eid_dnn_128-10-10_elephant_10_n02504458_6799.png
bagnet9,1,399,NaN,dog,keyboard,16-10-10,0399_eid_dnn_16-10-10_keyboard_10_n03085013_24402.png
bagnet9,1,400,NaN,cat,knife,16-10-10,0400_eid_dnn_16-10-10_knife_10_n03041632_25772.png
bagnet9,1,401,NaN,cat,elephant,32-10-10,0401_eid_dnn_32-10-10_elephant_10_n02504458_5839.png
bagnet9,1,402,NaN,elephant,elephant,64-10-10,0402_eid_dnn_64-10-10_elephant_10_n02504458_5178.png
bagnet9,1,403,NaN,cat,bicycle,32-10-10,0403_eid_dnn_32-10-10_bicycle_10_n02835271_27014.png
bagnet9,1,404,NaN,elephant,car,128-10-10,0404_eid_dnn_128-10-10_car_10_n04285008_15218.png
bagnet9,1,405,NaN,dog,bicycle,8-10-10,0405_eid_dnn_8-10-10_bicycle_10_n02835271_19955.png
bagnet9,1,406,NaN,truck,truck,1-10-10,0406_eid_dnn_1-10-10_truck_10_n03796401_874.png
bagnet9,1,407,NaN,dog,dog,2-10-10,0407_eid_dnn_2-10-10_dog_10_n02108915_6092.png
bagnet9,1,408,NaN,dog,clock,16-10-10,0408_eid_dnn_16-10-10_clock_10_n04548280_6337.png
bagnet9,1,409,NaN,elephant,boat,4-10-10,0409_eid_dnn_4-10-10_boat_10_n04273569_1388.png
bagnet9,1,410,NaN,elephant,clock,64-10-10,0410_eid_dnn_64-10-10_clock_10_n02708093_2676.png
bagnet9,1,411,NaN,cat,dog,64-10-10,0411_eid_dnn_64-10-10_dog_10_n02107683_5424.png
bagnet9,1,412,NaN,chair,chair,1-10-10,0412_eid_dnn_1-10-10_chair_10_n04099969_29038.png
bagnet9,1,413,NaN,cat,clock,16-10-10,0413_eid_dnn_16-10-10_clock_10_n04548280_3219.png
bagnet9,1,414,NaN,cat,clock,32-10-10,0414_eid_dnn_32-10-10_clock_10_n03196217_8282.png
bagnet9,1,415,NaN,bird,oven,8-10-10,0415_eid_dnn_8-10-10_oven_10_n04111531_22041.png
bagnet9,1,416,NaN,cat,bear,8-10-10,0416_eid_dnn_8-10-10_bear_10_n02134084_6964.png
bagnet9,1,417,NaN,cat,bicycle,64-10-10,0417_eid_dnn_64-10-10_bicycle_10_n03792782_11921.png
bagnet9,1,418,NaN,bottle,clock,8-10-10,0418_eid_dnn_8-10-10_clock_10_n04548280_1809.png
bagnet9,1,419,NaN,bottle,bird,4-10-10,0419_eid_dnn_4-10-10_bird_10_n01833805_202.png
bagnet9,1,420,NaN,cat,keyboard,64-10-10,0420_eid_dnn_64-10-10_keyboard_10_n03085013_7511.png
bagnet9,1,421,NaN,dog,bird,1-10-10,0421_eid_dnn_1-10-10_bird_10_n02025239_5287.png
bagnet9,1,422,NaN,cat,boat,64-10-10,0422_eid_dnn_64-10-10_boat_10_n03662601_27960.png
bagnet9,1,423,NaN,chair,bottle,1-10-10,0423_eid_dnn_1-10-10_bottle_10_n04591713_6855.png
bagnet9,1,424,NaN,cat,elephant,128-10-10,0424_eid_dnn_128-10-10_elephant_10_n02504013_4424.png
bagnet9,1,425,NaN,clock,clock,2-10-10,0425_eid_dnn_2-10-10_clock_10_n04548280_3295.png
bagnet9,1,426,NaN,airplane,airplane,1-10-10,0426_eid_dnn_1-10-10_airplane_10_n02690373_6144.png
bagnet9,1,427,NaN,cat,truck,32-10-10,0427_eid_dnn_32-10-10_truck_10_n04467665_70894.png
bagnet9,1,428,NaN,cat,boat,128-10-10,0428_eid_dnn_128-10-10_boat_10_n02951358_30474.png
bagnet9,1,429,NaN,cat,bear,4-10-10,0429_eid_dnn_4-10-10_bear_10_n02132136_6434.png
bagnet9,1,430,NaN,dog,keyboard,32-10-10,0430_eid_dnn_32-10-10_keyboard_10_n04505470_5009.png
bagnet9,1,431,NaN,keyboard,keyboard,2-10-10,0431_eid_dnn_2-10-10_keyboard_10_n03085013_13005.png
bagnet9,1,432,NaN,chair,chair,1-10-10,0432_eid_dnn_1-10-10_chair_10_n03376595_6865.png
bagnet9,1,433,NaN,cat,bicycle,32-10-10,0433_eid_dnn_32-10-10_bicycle_10_n02835271_6122.png
bagnet9,1,434,NaN,dog,oven,4-10-10,0434_eid_dnn_4-10-10_oven_10_n04111531_11499.png
bagnet9,1,435,NaN,dog,bird,1-10-10,0435_eid_dnn_1-10-10_bird_10_n02009229_5765.png
bagnet9,1,436,NaN,cat,bottle,32-10-10,0436_eid_dnn_32-10-10_bottle_10_n04560804_2181.png
bagnet9,1,437,NaN,cat,bicycle,32-10-10,0437_eid_dnn_32-10-10_bicycle_10_n03792782_3774.png
bagnet9,1,438,NaN,bottle,bird,16-10-10,0438_eid_dnn_16-10-10_bird_10_n01614925_1683.png
bagnet9,1,439,NaN,dog,clock,8-10-10,0439_eid_dnn_8-10-10_clock_10_n02708093_4692.png
bagnet9,1,440,NaN,dog,dog,4-10-10,0440_eid_dnn_4-10-10_dog_10_n02109961_71298.png
bagnet9,1,441,NaN,keyboard,keyboard,2-10-10,0441_eid_dnn_2-10-10_keyboard_10_n03085013_23269.png
bagnet9,1,442,NaN,dog,elephant,2-10-10,0442_eid_dnn_2-10-10_elephant_10_n02504458_5614.png
bagnet9,1,443,NaN,bottle,car,2-10-10,0443_eid_dnn_2-10-10_car_10_n04285008_4640.png
bagnet9,1,444,NaN,cat,oven,128-10-10,0444_eid_dnn_128-10-10_oven_10_n04111531_6346.png
bagnet9,1,445,NaN,dog,chair,2-10-10,0445_eid_dnn_2-10-10_chair_10_n04099969_14851.png
bagnet9,1,446,NaN,cat,bird,64-10-10,0446_eid_dnn_64-10-10_bird_10_n02051845_534.png
bagnet9,1,447,NaN,cat,bird,128-10-10,0447_eid_dnn_128-10-10_bird_10_n02056570_9342.png
bagnet9,1,448,NaN,dog,oven,16-10-10,0448_eid_dnn_16-10-10_oven_10_n04111531_4900.png
bagnet9,1,449,NaN,cat,boat,32-10-10,0449_eid_dnn_32-10-10_boat_10_n02951358_31973.png
bagnet9,1,450,NaN,dog,keyboard,4-10-10,0450_eid_dnn_4-10-10_keyboard_10_n03085013_19842.png
bagnet9,1,451,NaN,chair,keyboard,8-10-10,0451_eid_dnn_8-10-10_keyboard_10_n03085013_8296.png
bagnet9,1,452,NaN,dog,car,16-10-10,0452_eid_dnn_16-10-10_car_10_n03100240_3528.png
bagnet9,1,453,NaN,cat,cat,8-10-10,0453_eid_dnn_8-10-10_cat_10_n02123159_7210.png
bagnet9,1,454,NaN,dog,knife,16-10-10,0454_eid_dnn_16-10-10_knife_10_n03041632_56172.png
bagnet9,1,455,NaN,dog,oven,4-10-10,0455_eid_dnn_4-10-10_oven_10_n04111531_2116.png
bagnet9,1,456,NaN,dog,bicycle,8-10-10,0456_eid_dnn_8-10-10_bicycle_10_n02835271_12477.png
bagnet9,1,457,NaN,knife,knife,2-10-10,0457_eid_dnn_2-10-10_knife_10_n03041632_42472.png
bagnet9,1,458,NaN,bottle,oven,2-10-10,0458_eid_dnn_2-10-10_oven_10_n04111531_8818.png
bagnet9,1,459,NaN,cat,truck,2-10-10,0459_eid_dnn_2-10-10_truck_10_n04467665_67115.png
bagnet9,1,460,NaN,dog,bird,4-10-10,0460_eid_dnn_4-10-10_bird_10_n02011460_3521.png
bagnet9,1,461,NaN,cat,bear,64-10-10,0461_eid_dnn_64-10-10_bear_10_n02133161_3533.png
bagnet9,1,462,NaN,dog,bird,8-10-10,0462_eid_dnn_8-10-10_bird_10_n02013706_637.png
bagnet9,1,463,NaN,elephant,bear,64-10-10,0463_eid_dnn_64-10-10_bear_10_n02132136_29636.png
bagnet9,1,464,NaN,bicycle,bicycle,2-10-10,0464_eid_dnn_2-10-10_bicycle_10_n02835271_634.png
bagnet9,1,465,NaN,keyboard,keyboard,1-10-10,0465_eid_dnn_1-10-10_keyboard_10_n04505470_4621.png
bagnet9,1,466,NaN,cat,bear,16-10-10,0466_eid_dnn_16-10-10_bear_10_n02134084_2844.png
bagnet9,1,467,NaN,dog,bicycle,4-10-10,0467_eid_dnn_4-10-10_bicycle_10_n03792782_17088.png
bagnet9,1,468,NaN,dog,clock,4-10-10,0468_eid_dnn_4-10-10_clock_10_n03196217_8706.png
bagnet9,1,469,NaN,chair,oven,4-10-10,0469_eid_dnn_4-10-10_oven_10_n04111531_15052.png
bagnet9,1,470,NaN,dog,bottle,16-10-10,0470_eid_dnn_16-10-10_bottle_10_n04560804_5769.png
bagnet9,1,471,NaN,cat,dog,128-10-10,0471_eid_dnn_128-10-10_dog_10_n02110063_14116.png
bagnet9,1,472,NaN,cat,cat,32-10-10,0472_eid_dnn_32-10-10_cat_10_n02124075_3609.png
bagnet9,1,473,NaN,knife,airplane,32-10-10,0473_eid_dnn_32-10-10_airplane_10_n02690373_10926.png
bagnet9,1,474,NaN,cat,bird,16-10-10,0474_eid_dnn_16-10-10_bird_10_n02033041_7229.png
bagnet9,1,475,NaN,dog,bird,2-10-10,0475_eid_dnn_2-10-10_bird_10_n02006656_611.png
bagnet9,1,476,NaN,cat,bear,16-10-10,0476_eid_dnn_16-10-10_bear_10_n02133161_958.png
bagnet9,1,477,NaN,bird,bird,8-10-10,0477_eid_dnn_8-10-10_bird_10_n01843065_148.png
bagnet9,1,478,NaN,cat,cat,32-10-10,0478_eid_dnn_32-10-10_cat_10_n02123597_13623.png
bagnet9,1,479,NaN,dog,bicycle,8-10-10,0479_eid_dnn_8-10-10_bicycle_10_n02835271_12957.png
bagnet9,1,480,NaN,clock,knife,8-10-10,0480_eid_dnn_8-10-10_knife_10_n03041632_96714.png
bagnet9,1,481,NaN,cat,bear,128-10-10,0481_eid_dnn_128-10-10_bear_10_n02133161_3550.png
bagnet9,1,482,NaN,airplane,airplane,2-10-10,0482_eid_dnn_2-10-10_airplane_10_n02690373_4471.png
bagnet9,1,483,NaN,cat,airplane,64-10-10,0483_eid_dnn_64-10-10_airplane_10_n02690373_2026.png
bagnet9,1,484,NaN,truck,car,1-10-10,0484_eid_dnn_1-10-10_car_10_n03100240_18270.png
bagnet9,1,485,NaN,cat,elephant,128-10-10,0485_eid_dnn_128-10-10_elephant_10_n02504458_5204.png
bagnet9,1,486,NaN,truck,oven,1-10-10,0486_eid_dnn_1-10-10_oven_10_n04111531_10339.png
bagnet9,1,487,NaN,dog,elephant,2-10-10,0487_eid_dnn_2-10-10_elephant_10_n02504458_12705.png
bagnet9,1,488,NaN,boat,boat,1-10-10,0488_eid_dnn_1-10-10_boat_10_n03344393_9268.png
bagnet9,1,489,NaN,dog,bicycle,16-10-10,0489_eid_dnn_16-10-10_bicycle_10_n02835271_23173.png
bagnet9,1,490,NaN,cat,knife,32-10-10,0490_eid_dnn_32-10-10_knife_10_n03041632_43975.png
bagnet9,1,491,NaN,cat,bicycle,128-10-10,0491_eid_dnn_128-10-10_bicycle_10_n03792782_3299.png
bagnet9,1,492,NaN,cat,boat,32-10-10,0492_eid_dnn_32-10-10_boat_10_n04273569_5679.png
bagnet9,1,493,NaN,cat,bird,32-10-10,0493_eid_dnn_32-10-10_bird_10_n02056570_10127.png
bagnet9,1,494,NaN,dog,bear,32-10-10,0494_eid_dnn_32-10-10_bear_10_n02133161_7688.png
bagnet9,1,495,NaN,dog,cat,16-10-10,0495_eid_dnn_16-10-10_cat_10_n02123597_624.png
bagnet9,1,496,NaN,cat,bird,64-10-10,0496_eid_dnn_64-10-10_bird_10_n01560419_3399.png
bagnet9,1,497,NaN,cat,cat,32-10-10,0497_eid_dnn_32-10-10_cat_10_n02123045_12762.png
bagnet9,1,498,NaN,cat,car,16-10-10,0498_eid_dnn_16-10-10_car_10_n02814533_7247.png
bagnet9,1,499,NaN,dog,keyboard,4-10-10,0499_eid_dnn_4-10-10_keyboard_10_n03085013_4941.png
bagnet9,1,500,NaN,dog,truck,4-10-10,0500_eid_dnn_4-10-10_truck_10_n03417042_6420.png
bagnet9,1,501,NaN,cat,boat,64-10-10,0501_eid_dnn_64-10-10_boat_10_n03662601_2120.png
bagnet9,1,502,NaN,dog,bear,2-10-10,0502_eid_dnn_2-10-10_bear_10_n02134084_7331.png
bagnet9,1,503,NaN,cat,bottle,32-10-10,0503_eid_dnn_32-10-10_bottle_10_n02823428_906.png
bagnet9,1,504,NaN,cat,cat,16-10-10,0504_eid_dnn_16-10-10_cat_10_n02123394_270.png
bagnet9,1,505,NaN,dog,boat,2-10-10,0505_eid_dnn_2-10-10_boat_10_n02951358_1910.png
bagnet9,1,506,NaN,dog,knife,4-10-10,0506_eid_dnn_4-10-10_knife_10_n03041632_23678.png
bagnet9,1,507,NaN,cat,car,16-10-10,0507_eid_dnn_16-10-10_car_10_n02814533_31083.png
bagnet9,1,508,NaN,keyboard,keyboard,1-10-10,0508_eid_dnn_1-10-10_keyboard_10_n04505470_2881.png
bagnet9,1,509,NaN,dog,cat,8-10-10,0509_eid_dnn_8-10-10_cat_10_n02125311_2923.png
bagnet9,1,510,NaN,dog,bicycle,2-10-10,0510_eid_dnn_2-10-10_bicycle_10_n03792782_2598.png
bagnet9,1,511,NaN,truck,car,2-10-10,0511_eid_dnn_2-10-10_car_10_n03100240_4460.png
bagnet9,1,512,NaN,cat,knife,4-10-10,0512_eid_dnn_4-10-10_knife_10_n03041632_29920.png
bagnet9,1,513,NaN,cat,bird,32-10-10,0513_eid_dnn_32-10-10_bird_10_n01796340_3845.png
bagnet9,1,514,NaN,keyboard,keyboard,8-10-10,0514_eid_dnn_8-10-10_keyboard_10_n03085013_21932.png
bagnet9,1,515,NaN,keyboard,bottle,1-10-10,0515_eid_dnn_1-10-10_bottle_10_n02823428_64.png
bagnet9,1,516,NaN,dog,chair,8-10-10,0516_eid_dnn_8-10-10_chair_10_n04099969_4374.png
bagnet9,1,517,NaN,clock,clock,1-10-10,0517_eid_dnn_1-10-10_clock_10_n02708093_8257.png
bagnet9,1,518,NaN,cat,knife,16-10-10,0518_eid_dnn_16-10-10_knife_10_n03041632_45569.png
bagnet9,1,519,NaN,cat,chair,128-10-10,0519_eid_dnn_128-10-10_chair_10_n04099969_1850.png
bagnet9,1,520,NaN,dog,dog,2-10-10,0520_eid_dnn_2-10-10_dog_10_n02092002_2008.png
bagnet9,1,521,NaN,dog,bicycle,8-10-10,0521_eid_dnn_8-10-10_bicycle_10_n02835271_8105.png
bagnet9,1,522,NaN,cat,oven,64-10-10,0522_eid_dnn_64-10-10_oven_10_n04111531_14126.png
bagnet9,1,523,NaN,dog,elephant,4-10-10,0523_eid_dnn_4-10-10_elephant_10_n02504013_13766.png
bagnet9,1,524,NaN,cat,bicycle,64-10-10,0524_eid_dnn_64-10-10_bicycle_10_n02835271_18361.png
bagnet9,1,525,NaN,cat,bird,8-10-10,0525_eid_dnn_8-10-10_bird_10_n01582220_4708.png
bagnet9,1,526,NaN,dog,chair,16-10-10,0526_eid_dnn_16-10-10_chair_10_n04099969_101.png
bagnet9,1,527,NaN,cat,cat,1-10-10,0527_eid_dnn_1-10-10_cat_10_n02124075_724.png
bagnet9,1,528,NaN,elephant,bicycle,32-10-10,0528_eid_dnn_32-10-10_bicycle_10_n02835271_43.png
bagnet9,1,529,NaN,dog,bird,2-10-10,0529_eid_dnn_2-10-10_bird_10_n02017213_5362.png
bagnet9,1,530,NaN,dog,dog,1-10-10,0530_eid_dnn_1-10-10_dog_10_n02088466_1769.png
bagnet9,1,531,NaN,dog,bear,1-10-10,0531_eid_dnn_1-10-10_bear_10_n02133161_5653.png
bagnet9,1,532,NaN,dog,dog,1-10-10,0532_eid_dnn_1-10-10_dog_10_n02098105_4676.png
bagnet9,1,533,NaN,cat,cat,2-10-10,0533_eid_dnn_2-10-10_cat_10_n02123045_3593.png
bagnet9,1,534,NaN,dog,bottle,8-10-10,0534_eid_dnn_8-10-10_bottle_10_n04560804_265.png
bagnet9,1,535,NaN,cat,knife,128-10-10,0535_eid_dnn_128-10-10_knife_10_n03041632_1556.png
bagnet9,1,536,NaN,dog,chair,4-10-10,0536_eid_dnn_4-10-10_chair_10_n02791124_9595.png
bagnet9,1,537,NaN,cat,dog,32-10-10,0537_eid_dnn_32-10-10_dog_10_n02107312_2933.png
bagnet9,1,538,NaN,cat,oven,32-10-10,0538_eid_dnn_32-10-10_oven_10_n04111531_101.png
bagnet9,1,539,NaN,dog,truck,4-10-10,0539_eid_dnn_4-10-10_truck_10_n03417042_7204.png
bagnet9,1,540,NaN,cat,bear,64-10-10,0540_eid_dnn_64-10-10_bear_10_n02132136_2120.png
bagnet9,1,541,NaN,elephant,airplane,64-10-10,0541_eid_dnn_64-10-10_airplane_10_n02690373_18412.png
bagnet9,1,542,NaN,elephant,knife,128-10-10,0542_eid_dnn_128-10-10_knife_10_n03041632_21017.png
bagnet9,1,543,NaN,cat,elephant,128-10-10,0543_eid_dnn_128-10-10_elephant_10_n02504458_8414.png
bagnet9,1,544,NaN,cat,bottle,128-10-10,0544_eid_dnn_128-10-10_bottle_10_n04557648_11046.png
bagnet9,1,545,NaN,cat,clock,64-10-10,0545_eid_dnn_64-10-10_clock_10_n03196217_10578.png
bagnet9,1,546,NaN,dog,bear,2-10-10,0546_eid_dnn_2-10-10_bear_10_n02134418_3213.png
bagnet9,1,547,NaN,dog,clock,64-10-10,0547_eid_dnn_64-10-10_clock_10_n03196217_6289.png
bagnet9,1,548,NaN,elephant,dog,32-10-10,0548_eid_dnn_32-10-10_dog_10_n02096294_1498.png
bagnet9,1,549,NaN,cat,oven,16-10-10,0549_eid_dnn_16-10-10_oven_10_n04111531_519.png
bagnet9,1,550,NaN,airplane,bird,1-10-10,0550_eid_dnn_1-10-10_bird_10_n01531178_14959.png
bagnet9,1,551,NaN,cat,bear,32-10-10,0551_eid_dnn_32-10-10_bear_10_n02132136_8754.png
bagnet9,1,552,NaN,car,car,1-10-10,0552_eid_dnn_1-10-10_car_10_n02814533_73067.png
bagnet9,1,553,NaN,dog,cat,8-10-10,0553_eid_dnn_8-10-10_cat_10_n02124075_15378.png
bagnet9,1,554,NaN,cat,bird,128-10-10,0554_eid_dnn_128-10-10_bird_10_n01592084_7569.png
bagnet9,1,555,NaN,cat,dog,128-10-10,0555_eid_dnn_128-10-10_dog_10_n02094114_3395.png
bagnet9,1,556,NaN,dog,chair,4-10-10,0556_eid_dnn_4-10-10_chair_10_n03376595_1712.png
bagnet9,1,557,NaN,cat,bear,64-10-10,0557_eid_dnn_64-10-10_bear_10_n02134084_622.png
bagnet9,1,558,NaN,knife,clock,8-10-10,0558_eid_dnn_8-10-10_clock_10_n03196217_4912.png
bagnet9,1,559,NaN,elephant,car,64-10-10,0559_eid_dnn_64-10-10_car_10_n03100240_18815.png
bagnet9,1,560,NaN,bicycle,chair,2-10-10,0560_eid_dnn_2-10-10_chair_10_n04099969_2020.png
bagnet9,1,561,NaN,dog,bear,1-10-10,0561_eid_dnn_1-10-10_bear_10_n02132136_7647.png
bagnet9,1,562,NaN,cat,oven,128-10-10,0562_eid_dnn_128-10-10_oven_10_n04111531_2796.png
bagnet9,1,563,NaN,cat,truck,64-10-10,0563_eid_dnn_64-10-10_truck_10_n03796401_9472.png
bagnet9,1,564,NaN,dog,chair,4-10-10,0564_eid_dnn_4-10-10_chair_10_n03376595_12433.png
bagnet9,1,565,NaN,keyboard,truck,4-10-10,0565_eid_dnn_4-10-10_truck_10_n04467665_31539.png
bagnet9,1,566,NaN,cat,airplane,32-10-10,0566_eid_dnn_32-10-10_airplane_10_n02690373_10657.png
bagnet9,1,567,NaN,dog,truck,16-10-10,0567_eid_dnn_16-10-10_truck_10_n03796401_5963.png
bagnet9,1,568,NaN,elephant,dog,64-10-10,0568_eid_dnn_64-10-10_dog_10_n02096294_2233.png
bagnet9,1,569,NaN,cat,airplane,128-10-10,0569_eid_dnn_128-10-10_airplane_10_n02690373_4873.png
bagnet9,1,570,NaN,truck,truck,1-10-10,0570_eid_dnn_1-10-10_truck_10_n04467665_4825.png
bagnet9,1,571,NaN,dog,chair,16-10-10,0571_eid_dnn_16-10-10_chair_10_n04099969_1704.png
bagnet9,1,572,NaN,bicycle,bicycle,2-10-10,0572_eid_dnn_2-10-10_bicycle_10_n02835271_1573.png
bagnet9,1,573,NaN,keyboard,boat,2-10-10,0573_eid_dnn_2-10-10_boat_10_n04273569_12725.png
bagnet9,1,574,NaN,cat,knife,128-10-10,0574_eid_dnn_128-10-10_knife_10_n03041632_11285.png
bagnet9,1,575,NaN,keyboard,clock,4-10-10,0575_eid_dnn_4-10-10_clock_10_n03196217_8254.png
bagnet9,1,576,NaN,dog,knife,16-10-10,0576_eid_dnn_16-10-10_knife_10_n03041632_15099.png
bagnet9,1,577,NaN,cat,cat,64-10-10,0577_eid_dnn_64-10-10_cat_10_n02125311_30452.png
bagnet9,1,578,NaN,dog,bottle,32-10-10,0578_eid_dnn_32-10-10_bottle_10_n04591713_6804.png
bagnet9,1,579,NaN,cat,dog,64-10-10,0579_eid_dnn_64-10-10_dog_10_n02088364_14369.png
bagnet9,1,580,NaN,dog,truck,32-10-10,0580_eid_dnn_32-10-10_truck_10_n03796401_16425.png
bagnet9,1,581,NaN,cat,truck,64-10-10,0581_eid_dnn_64-10-10_truck_10_n03417042_5406.png
bagnet9,1,582,NaN,keyboard,knife,1-10-10,0582_eid_dnn_1-10-10_knife_10_n03041632_52929.png
bagnet9,1,583,NaN,cat,chair,64-10-10,0583_eid_dnn_64-10-10_chair_10_n03376595_4820.png
bagnet9,1,584,NaN,bicycle,chair,1-10-10,0584_eid_dnn_1-10-10_chair_10_n03376595_787.png
bagnet9,1,585,NaN,dog,chair,2-10-10,0585_eid_dnn_2-10-10_chair_10_n03376595_7709.png
bagnet9,1,586,NaN,truck,bottle,1-10-10,0586_eid_dnn_1-10-10_bottle_10_n03983396_11006.png
bagnet9,1,587,NaN,dog,oven,8-10-10,0587_eid_dnn_8-10-10_oven_10_n04111531_458.png
bagnet9,1,588,NaN,cat,cat,128-10-10,0588_eid_dnn_128-10-10_cat_10_n02123045_7829.png
bagnet9,1,589,NaN,dog,bear,1-10-10,0589_eid_dnn_1-10-10_bear_10_n02134418_4685.png
bagnet9,1,590,NaN,cat,knife,64-10-10,0590_eid_dnn_64-10-10_knife_10_n03041632_1964.png
bagnet9,1,591,NaN,dog,car,4-10-10,0591_eid_dnn_4-10-10_car_10_n03100240_17472.png
bagnet9,1,592,NaN,dog,dog,16-10-10,0592_eid_dnn_16-10-10_dog_10_n02113023_1980.png
bagnet9,1,593,NaN,cat,dog,32-10-10,0593_eid_dnn_32-10-10_dog_10_n02100735_6359.png
bagnet9,1,594,NaN,elephant,knife,1-10-10,0594_eid_dnn_1-10-10_knife_10_n03041632_31849.png
bagnet9,1,595,NaN,dog,bird,8-10-10,0595_eid_dnn_8-10-10_bird_10_n01532829_23378.png
bagnet9,1,596,NaN,elephant,clock,64-10-10,0596_eid_dnn_64-10-10_clock_10_n02708093_5127.png
bagnet9,1,597,NaN,bear,bear,4-10-10,0597_eid_dnn_4-10-10_bear_10_n02134084_12148.png
bagnet9,1,598,NaN,dog,elephant,4-10-10,0598_eid_dnn_4-10-10_elephant_10_n02504458_63.png
bagnet9,1,599,NaN,dog,dog,2-10-10,0599_eid_dnn_2-10-10_dog_10_n02108551_13160.png
bagnet9,1,600,NaN,dog,bicycle,2-10-10,0600_eid_dnn_2-10-10_bicycle_10_n02835271_3215.png
bagnet9,1,601,NaN,dog,bicycle,16-10-10,0601_eid_dnn_16-10-10_bicycle_10_n03792782_14216.png
bagnet9,1,602,NaN,bicycle,bicycle,2-10-10,0602_eid_dnn_2-10-10_bicycle_10_n03792782_25352.png
bagnet9,1,603,NaN,cat,boat,128-10-10,0603_eid_dnn_128-10-10_boat_10_n04273569_1482.png
bagnet9,1,604,NaN,truck,car,2-10-10,0604_eid_dnn_2-10-10_car_10_n02814533_59053.png
bagnet9,1,605,NaN,cat,airplane,128-10-10,0605_eid_dnn_128-10-10_airplane_10_n02690373_10462.png
bagnet9,1,606,NaN,dog,bottle,8-10-10,0606_eid_dnn_8-10-10_bottle_10_n04560804_15379.png
bagnet9,1,607,NaN,dog,chair,16-10-10,0607_eid_dnn_16-10-10_chair_10_n02791124_1140.png
bagnet9,1,608,NaN,dog,dog,8-10-10,0608_eid_dnn_8-10-10_dog_10_n02101388_24945.png
bagnet9,1,609,NaN,cat,cat,64-10-10,0609_eid_dnn_64-10-10_cat_10_n02124075_20957.png
bagnet9,1,610,NaN,dog,elephant,1-10-10,0610_eid_dnn_1-10-10_elephant_10_n02504013_8105.png
bagnet9,1,611,NaN,truck,truck,2-10-10,0611_eid_dnn_2-10-10_truck_10_n03796401_13992.png
bagnet9,1,612,NaN,elephant,bottle,128-10-10,0612_eid_dnn_128-10-10_bottle_10_n04560804_22426.png
bagnet9,1,613,NaN,dog,cat,1-10-10,0613_eid_dnn_1-10-10_cat_10_n02123159_2100.png
bagnet9,1,614,NaN,elephant,clock,64-10-10,0614_eid_dnn_64-10-10_clock_10_n02708093_6560.png
bagnet9,1,615,NaN,dog,bird,1-10-10,0615_eid_dnn_1-10-10_bird_10_n01855032_4905.png
bagnet9,1,616,NaN,bottle,clock,2-10-10,0616_eid_dnn_2-10-10_clock_10_n04548280_2616.png
bagnet9,1,617,NaN,truck,truck,2-10-10,0617_eid_dnn_2-10-10_truck_10_n03417042_3789.png
bagnet9,1,618,NaN,cat,oven,64-10-10,0618_eid_dnn_64-10-10_oven_10_n04111531_7356.png
bagnet9,1,619,NaN,dog,cat,4-10-10,0619_eid_dnn_4-10-10_cat_10_n02124075_18687.png
bagnet9,1,620,NaN,keyboard,keyboard,8-10-10,0620_eid_dnn_8-10-10_keyboard_10_n03085013_17884.png
bagnet9,1,621,NaN,keyboard,keyboard,2-10-10,0621_eid_dnn_2-10-10_keyboard_10_n03085013_4780.png
bagnet9,1,622,NaN,dog,cat,16-10-10,0622_eid_dnn_16-10-10_cat_10_n02123045_15476.png
bagnet9,1,623,NaN,keyboard,keyboard,4-10-10,0623_eid_dnn_4-10-10_keyboard_10_n03085013_6095.png
bagnet9,1,624,NaN,airplane,airplane,1-10-10,0624_eid_dnn_1-10-10_airplane_10_n02690373_18848.png
bagnet9,1,625,NaN,dog,bicycle,16-10-10,0625_eid_dnn_16-10-10_bicycle_10_n02835271_18706.png
bagnet9,1,626,NaN,dog,dog,1-10-10,0626_eid_dnn_1-10-10_dog_10_n02111500_1393.png
bagnet9,1,627,NaN,airplane,airplane,2-10-10,0627_eid_dnn_2-10-10_airplane_10_n02690373_5748.png
bagnet9,1,628,NaN,cat,dog,128-10-10,0628_eid_dnn_128-10-10_dog_10_n02100877_7049.png
bagnet9,1,629,NaN,cat,bear,32-10-10,0629_eid_dnn_32-10-10_bear_10_n02134084_6854.png
bagnet9,1,630,NaN,dog,bottle,16-10-10,0630_eid_dnn_16-10-10_bottle_10_n03983396_11402.png
bagnet9,1,631,NaN,cat,cat,64-10-10,0631_eid_dnn_64-10-10_cat_10_n02124075_2813.png
bagnet9,1,632,NaN,cat,keyboard,32-10-10,0632_eid_dnn_32-10-10_keyboard_10_n03085013_23814.png
bagnet9,1,633,NaN,dog,cat,2-10-10,0633_eid_dnn_2-10-10_cat_10_n02125311_30349.png
bagnet9,1,634,NaN,dog,bear,16-10-10,0634_eid_dnn_16-10-10_bear_10_n02133161_1234.png
bagnet9,1,635,NaN,bird,oven,128-10-10,0635_eid_dnn_128-10-10_oven_10_n04111531_9779.png
bagnet9,1,636,NaN,cat,car,64-10-10,0636_eid_dnn_64-10-10_car_10_n02814533_19373.png
bagnet9,1,637,NaN,dog,bird,4-10-10,0637_eid_dnn_4-10-10_bird_10_n02051845_41380.png
bagnet9,1,638,NaN,cat,cat,16-10-10,0638_eid_dnn_16-10-10_cat_10_n02123159_2455.png
bagnet9,1,639,NaN,knife,knife,8-10-10,0639_eid_dnn_8-10-10_knife_10_n03041632_23803.png
bagnet9,1,640,NaN,cat,boat,16-10-10,0640_eid_dnn_16-10-10_boat_10_n02951358_2013.png
bagnet9,1,641,NaN,elephant,bottle,64-10-10,0641_eid_dnn_64-10-10_bottle_10_n04591713_6561.png
bagnet9,1,642,NaN,cat,elephant,32-10-10,0642_eid_dnn_32-10-10_elephant_10_n02504013_12531.png
bagnet9,1,643,NaN,knife,boat,64-10-10,0643_eid_dnn_64-10-10_boat_10_n04612504_4719.png
bagnet9,1,644,NaN,cat,car,32-10-10,0644_eid_dnn_32-10-10_car_10_n02814533_46403.png
bagnet9,1,645,NaN,airplane,airplane,8-10-10,0645_eid_dnn_8-10-10_airplane_10_n02690373_8304.png
bagnet9,1,646,NaN,cat,boat,16-10-10,0646_eid_dnn_16-10-10_boat_10_n03662601_2686.png
bagnet9,1,647,NaN,dog,dog,2-10-10,0647_eid_dnn_2-10-10_dog_10_n02099849_2787.png
bagnet9,1,648,NaN,airplane,elephant,1-10-10,0648_eid_dnn_1-10-10_elephant_10_n02504458_7063.png
bagnet9,1,649,NaN,bicycle,chair,1-10-10,0649_eid_dnn_1-10-10_chair_10_n03376595_6938.png
bagnet9,1,650,NaN,dog,chair,8-10-10,0650_eid_dnn_8-10-10_chair_10_n02791124_5191.png
bagnet9,1,651,NaN,boat,boat,2-10-10,0651_eid_dnn_2-10-10_boat_10_n02951358_2350.png
bagnet9,1,652,NaN,dog,bear,8-10-10,0652_eid_dnn_8-10-10_bear_10_n02132136_6266.png
bagnet9,1,653,NaN,cat,chair,32-10-10,0653_eid_dnn_32-10-10_chair_10_n03376595_8964.png
bagnet9,1,654,NaN,airplane,airplane,2-10-10,0654_eid_dnn_2-10-10_airplane_10_n02690373_4042.png
bagnet9,1,655,NaN,dog,oven,2-10-10,0655_eid_dnn_2-10-10_oven_10_n04111531_845.png
bagnet9,1,656,NaN,cat,car,32-10-10,0656_eid_dnn_32-10-10_car_10_n02814533_49630.png
bagnet9,1,657,NaN,dog,knife,4-10-10,0657_eid_dnn_4-10-10_knife_10_n03041632_40450.png
bagnet9,1,658,NaN,cat,chair,16-10-10,0658_eid_dnn_16-10-10_chair_10_n04429376_11720.png
bagnet9,1,659,NaN,dog,knife,4-10-10,0659_eid_dnn_4-10-10_knife_10_n03041632_27929.png
bagnet9,1,660,NaN,boat,bird,1-10-10,0660_eid_dnn_1-10-10_bird_10_n02018207_10146.png
bagnet9,1,661,NaN,cat,elephant,32-10-10,0661_eid_dnn_32-10-10_elephant_10_n02504458_2471.png
bagnet9,1,662,NaN,chair,oven,8-10-10,0662_eid_dnn_8-10-10_oven_10_n04111531_20511.png
bagnet9,1,663,NaN,cat,truck,32-10-10,0663_eid_dnn_32-10-10_truck_10_n03417042_3228.png
bagnet9,1,664,NaN,cat,cat,2-10-10,0664_eid_dnn_2-10-10_cat_10_n02125311_9364.png
bagnet9,1,665,NaN,car,car,2-10-10,0665_eid_dnn_2-10-10_car_10_n04285008_16701.png
bagnet9,1,666,NaN,cat,boat,8-10-10,0666_eid_dnn_8-10-10_boat_10_n04273569_2667.png
bagnet9,1,667,NaN,airplane,boat,1-10-10,0667_eid_dnn_1-10-10_boat_10_n03662601_24208.png
bagnet9,1,668,NaN,dog,truck,8-10-10,0668_eid_dnn_8-10-10_truck_10_n03417042_11037.png
bagnet9,1,669,NaN,dog,bird,1-10-10,0669_eid_dnn_1-10-10_bird_10_n02002724_19618.png
bagnet9,1,670,NaN,cat,bear,16-10-10,0670_eid_dnn_16-10-10_bear_10_n02134418_1663.png
bagnet9,1,671,NaN,cat,chair,128-10-10,0671_eid_dnn_128-10-10_chair_10_n04099969_19484.png
bagnet9,1,672,NaN,car,car,1-10-10,0672_eid_dnn_1-10-10_car_10_n04285008_2727.png
bagnet9,1,673,NaN,cat,bicycle,32-10-10,0673_eid_dnn_32-10-10_bicycle_10_n03792782_14935.png
bagnet9,1,674,NaN,cat,cat,128-10-10,0674_eid_dnn_128-10-10_cat_10_n02124075_8320.png
bagnet9,1,675,NaN,dog,chair,4-10-10,0675_eid_dnn_4-10-10_chair_10_n04429376_57014.png
bagnet9,1,676,NaN,truck,oven,1-10-10,0676_eid_dnn_1-10-10_oven_10_n04111531_2385.png
bagnet9,1,677,NaN,cat,dog,64-10-10,0677_eid_dnn_64-10-10_dog_10_n02113023_10107.png
bagnet9,1,678,NaN,cat,elephant,16-10-10,0678_eid_dnn_16-10-10_elephant_10_n02504458_4708.png
bagnet9,1,679,NaN,cat,truck,64-10-10,0679_eid_dnn_64-10-10_truck_10_n04467665_70694.png
bagnet9,1,680,NaN,dog,bird,1-10-10,0680_eid_dnn_1-10-10_bird_10_n01843065_1179.png
bagnet9,1,681,NaN,chair,truck,1-10-10,0681_eid_dnn_1-10-10_truck_10_n03417042_11475.png
bagnet9,1,682,NaN,bird,bicycle,64-10-10,0682_eid_dnn_64-10-10_bicycle_10_n02835271_6137.png
bagnet9,1,683,NaN,airplane,airplane,16-10-10,0683_eid_dnn_16-10-10_airplane_10_n02690373_10001.png
bagnet9,1,684,NaN,cat,cat,2-10-10,0684_eid_dnn_2-10-10_cat_10_n02124075_17347.png
bagnet9,1,685,NaN,cat,keyboard,16-10-10,0685_eid_dnn_16-10-10_keyboard_10_n04505470_647.png
bagnet9,1,686,NaN,dog,bottle,4-10-10,0686_eid_dnn_4-10-10_bottle_10_n03983396_3028.png
bagnet9,1,687,NaN,car,car,1-10-10,0687_eid_dnn_1-10-10_car_10_n02814533_81090.png
bagnet9,1,688,NaN,cat,truck,32-10-10,0688_eid_dnn_32-10-10_truck_10_n03417042_18152.png
bagnet9,1,689,NaN,knife,bird,128-10-10,0689_eid_dnn_128-10-10_bird_10_n02033041_617.png
bagnet9,1,690,NaN,cat,cat,64-10-10,0690_eid_dnn_64-10-10_cat_10_n02123159_7270.png
bagnet9,1,691,NaN,cat,bird,64-10-10,0691_eid_dnn_64-10-10_bird_10_n01532829_20405.png
bagnet9,1,692,NaN,dog,bottle,32-10-10,0692_eid_dnn_32-10-10_bottle_10_n04557648_182.png
bagnet9,1,693,NaN,cat,car,64-10-10,0693_eid_dnn_64-10-10_car_10_n04285008_11745.png
bagnet9,1,694,NaN,bear,bear,4-10-10,0694_eid_dnn_4-10-10_bear_10_n02134084_38915.png
bagnet9,1,695,NaN,keyboard,keyboard,8-10-10,0695_eid_dnn_8-10-10_keyboard_10_n03085013_21066.png
bagnet9,1,696,NaN,dog,bear,2-10-10,0696_eid_dnn_2-10-10_bear_10_n02133161_6458.png
bagnet9,1,697,NaN,elephant,truck,128-10-10,0697_eid_dnn_128-10-10_truck_10_n04467665_67909.png
bagnet9,1,698,NaN,keyboard,car,4-10-10,0698_eid_dnn_4-10-10_car_10_n04285008_12691.png
bagnet9,1,699,NaN,dog,truck,8-10-10,0699_eid_dnn_8-10-10_truck_10_n04467665_69882.png
bagnet9,1,700,NaN,cat,cat,4-10-10,0700_eid_dnn_4-10-10_cat_10_n02123045_1902.png
bagnet9,1,701,NaN,airplane,car,4-10-10,0701_eid_dnn_4-10-10_car_10_n03100240_5709.png
bagnet9,1,702,NaN,dog,bear,8-10-10,0702_eid_dnn_8-10-10_bear_10_n02134084_1938.png
bagnet9,1,703,NaN,clock,clock,2-10-10,0703_eid_dnn_2-10-10_clock_10_n02708093_6820.png
bagnet9,1,704,NaN,airplane,airplane,1-10-10,0704_eid_dnn_1-10-10_airplane_10_n02690373_5689.png
bagnet9,1,705,NaN,cat,elephant,16-10-10,0705_eid_dnn_16-10-10_elephant_10_n02504013_8563.png
bagnet9,1,706,NaN,cat,bottle,16-10-10,0706_eid_dnn_16-10-10_bottle_10_n03937543_7767.png
bagnet9,1,707,NaN,cat,keyboard,128-10-10,0707_eid_dnn_128-10-10_keyboard_10_n03085013_6862.png
bagnet9,1,708,NaN,bottle,bottle,2-10-10,0708_eid_dnn_2-10-10_bottle_10_n03937543_1413.png
bagnet9,1,709,NaN,dog,truck,8-10-10,0709_eid_dnn_8-10-10_truck_10_n03796401_17201.png
bagnet9,1,710,NaN,cat,cat,32-10-10,0710_eid_dnn_32-10-10_cat_10_n02125311_13152.png
bagnet9,1,711,NaN,cat,truck,8-10-10,0711_eid_dnn_8-10-10_truck_10_n03796401_14203.png
bagnet9,1,712,NaN,cat,bird,32-10-10,0712_eid_dnn_32-10-10_bird_10_n01537544_3720.png
bagnet9,1,713,NaN,cat,boat,128-10-10,0713_eid_dnn_128-10-10_boat_10_n02951358_14346.png
bagnet9,1,714,NaN,cat,airplane,64-10-10,0714_eid_dnn_64-10-10_airplane_10_n02690373_757.png
bagnet9,1,715,NaN,cat,clock,16-10-10,0715_eid_dnn_16-10-10_clock_10_n04548280_8304.png
bagnet9,1,716,NaN,cat,knife,32-10-10,0716_eid_dnn_32-10-10_knife_10_n03041632_20697.png
bagnet9,1,717,NaN,cat,clock,128-10-10,0717_eid_dnn_128-10-10_clock_10_n02708093_7883.png
bagnet9,1,718,NaN,dog,oven,4-10-10,0718_eid_dnn_4-10-10_oven_10_n04111531_14559.png
bagnet9,1,719,NaN,elephant,oven,64-10-10,0719_eid_dnn_64-10-10_oven_10_n04111531_5906.png
bagnet9,1,720,NaN,clock,knife,2-10-10,0720_eid_dnn_2-10-10_knife_10_n03041632_4279.png
bagnet9,1,721,NaN,cat,dog,128-10-10,0721_eid_dnn_128-10-10_dog_10_n02099601_7103.png
bagnet9,1,722,NaN,cat,oven,64-10-10,0722_eid_dnn_64-10-10_oven_10_n04111531_5351.png
bagnet9,1,723,NaN,dog,bicycle,4-10-10,0723_eid_dnn_4-10-10_bicycle_10_n03792782_7518.png
bagnet9,1,724,NaN,elephant,bottle,32-10-10,0724_eid_dnn_32-10-10_bottle_10_n03983396_4321.png
bagnet9,1,725,NaN,dog,cat,1-10-10,0725_eid_dnn_1-10-10_cat_10_n02123394_7782.png
bagnet9,1,726,NaN,elephant,chair,64-10-10,0726_eid_dnn_64-10-10_chair_10_n02791124_3656.png
bagnet9,1,727,NaN,elephant,truck,128-10-10,0727_eid_dnn_128-10-10_truck_10_n04467665_15235.png
bagnet9,1,728,NaN,bird,clock,128-10-10,0728_eid_dnn_128-10-10_clock_10_n02708093_7054.png
bagnet9,1,729,NaN,dog,elephant,8-10-10,0729_eid_dnn_8-10-10_elephant_10_n02504013_6737.png
bagnet9,1,730,NaN,knife,boat,1-10-10,0730_eid_dnn_1-10-10_boat_10_n02951358_3452.png
bagnet9,1,731,NaN,cat,bird,32-10-10,0731_eid_dnn_32-10-10_bird_10_n01537544_5944.png
bagnet9,1,732,NaN,elephant,car,64-10-10,0732_eid_dnn_64-10-10_car_10_n04285008_3280.png
bagnet9,1,733,NaN,dog,oven,8-10-10,0733_eid_dnn_8-10-10_oven_10_n04111531_24096.png
bagnet9,1,734,NaN,dog,oven,16-10-10,0734_eid_dnn_16-10-10_oven_10_n04111531_8181.png
bagnet9,1,735,NaN,cat,bird,128-10-10,0735_eid_dnn_128-10-10_bird_10_n01833805_8028.png
bagnet9,1,736,NaN,cat,cat,16-10-10,0736_eid_dnn_16-10-10_cat_10_n02123045_11955.png
bagnet9,1,737,NaN,dog,airplane,16-10-10,0737_eid_dnn_16-10-10_airplane_10_n02690373_9423.png
bagnet9,1,738,NaN,dog,knife,16-10-10,0738_eid_dnn_16-10-10_knife_10_n03041632_13478.png
bagnet9,1,739,NaN,dog,bottle,2-10-10,0739_eid_dnn_2-10-10_bottle_10_n03983396_795.png
bagnet9,1,740,NaN,cat,bottle,128-10-10,0740_eid_dnn_128-10-10_bottle_10_n02823428_8079.png
bagnet9,1,741,NaN,dog,car,16-10-10,0741_eid_dnn_16-10-10_car_10_n03100240_17289.png
bagnet9,1,742,NaN,dog,bear,4-10-10,0742_eid_dnn_4-10-10_bear_10_n02132136_1646.png
bagnet9,1,743,NaN,cat,boat,64-10-10,0743_eid_dnn_64-10-10_boat_10_n04273569_30203.png
bagnet9,1,744,NaN,cat,knife,128-10-10,0744_eid_dnn_128-10-10_knife_10_n03041632_47703.png
bagnet9,1,745,NaN,airplane,airplane,1-10-10,0745_eid_dnn_1-10-10_airplane_10_n02690373_3928.png
bagnet9,1,746,NaN,dog,dog,8-10-10,0746_eid_dnn_8-10-10_dog_10_n02093991_4977.png
bagnet9,1,747,NaN,dog,dog,4-10-10,0747_eid_dnn_4-10-10_dog_10_n02113712_5816.png
bagnet9,1,748,NaN,keyboard,car,2-10-10,0748_eid_dnn_2-10-10_car_10_n02814533_62992.png
bagnet9,1,749,NaN,bear,bear,2-10-10,0749_eid_dnn_2-10-10_bear_10_n02134084_4818.png
bagnet9,1,750,NaN,cat,elephant,128-10-10,0750_eid_dnn_128-10-10_elephant_10_n02504458_5333.png
bagnet9,1,751,NaN,bottle,bottle,1-10-10,0751_eid_dnn_1-10-10_bottle_10_n04560804_17045.png
bagnet9,1,752,NaN,dog,oven,1-10-10,0752_eid_dnn_1-10-10_oven_10_n04111531_3126.png
bagnet9,1,753,NaN,cat,oven,16-10-10,0753_eid_dnn_16-10-10_oven_10_n04111531_13831.png
bagnet9,1,754,NaN,cat,truck,16-10-10,0754_eid_dnn_16-10-10_truck_10_n03417042_6941.png
bagnet9,1,755,NaN,elephant,bird,16-10-10,0755_eid_dnn_16-10-10_bird_10_n02017213_1619.png
bagnet9,1,756,NaN,dog,cat,4-10-10,0756_eid_dnn_4-10-10_cat_10_n02123159_273.png
bagnet9,1,757,NaN,elephant,chair,64-10-10,0757_eid_dnn_64-10-10_chair_10_n04429376_11956.png
bagnet9,1,758,NaN,boat,boat,4-10-10,0758_eid_dnn_4-10-10_boat_10_n03344393_11788.png
bagnet9,1,759,NaN,cat,oven,16-10-10,0759_eid_dnn_16-10-10_oven_10_n04111531_8852.png
bagnet9,1,760,NaN,elephant,bottle,32-10-10,0760_eid_dnn_32-10-10_bottle_10_n04591713_6024.png
bagnet9,1,761,NaN,dog,chair,16-10-10,0761_eid_dnn_16-10-10_chair_10_n03376595_5304.png
bagnet9,1,762,NaN,cat,truck,64-10-10,0762_eid_dnn_64-10-10_truck_10_n03417042_18072.png
bagnet9,1,763,NaN,cat,car,128-10-10,0763_eid_dnn_128-10-10_car_10_n04285008_8727.png
bagnet9,1,764,NaN,truck,truck,1-10-10,0764_eid_dnn_1-10-10_truck_10_n03417042_29384.png
bagnet9,1,765,NaN,boat,elephant,4-10-10,0765_eid_dnn_4-10-10_elephant_10_n02504013_14440.png
bagnet9,1,766,NaN,dog,bird,4-10-10,0766_eid_dnn_4-10-10_bird_10_n02007558_16547.png
bagnet9,1,767,NaN,bird,knife,32-10-10,0767_eid_dnn_32-10-10_knife_10_n03041632_44212.png
bagnet9,1,768,NaN,dog,elephant,2-10-10,0768_eid_dnn_2-10-10_elephant_10_n02504458_14308.png
bagnet9,1,769,NaN,keyboard,knife,8-10-10,0769_eid_dnn_8-10-10_knife_10_n03041632_31363.png
bagnet9,1,770,NaN,airplane,airplane,8-10-10,0770_eid_dnn_8-10-10_airplane_10_n02690373_1563.png
bagnet9,1,771,NaN,elephant,bear,128-10-10,0771_eid_dnn_128-10-10_bear_10_n02132136_1624.png
bagnet9,1,772,NaN,dog,oven,2-10-10,0772_eid_dnn_2-10-10_oven_10_n04111531_13625.png
bagnet9,1,773,NaN,cat,cat,4-10-10,0773_eid_dnn_4-10-10_cat_10_n02125311_27989.png
bagnet9,1,774,NaN,cat,knife,64-10-10,0774_eid_dnn_64-10-10_knife_10_n03041632_17091.png
bagnet9,1,775,NaN,dog,keyboard,8-10-10,0775_eid_dnn_8-10-10_keyboard_10_n03085013_18785.png
bagnet9,1,776,NaN,clock,clock,2-10-10,0776_eid_dnn_2-10-10_clock_10_n04548280_3610.png
bagnet9,1,777,NaN,chair,knife,1-10-10,0777_eid_dnn_1-10-10_knife_10_n03041632_25656.png
bagnet9,1,778,NaN,dog,clock,4-10-10,0778_eid_dnn_4-10-10_clock_10_n04548280_10183.png
bagnet9,1,779,NaN,cat,cat,128-10-10,0779_eid_dnn_128-10-10_cat_10_n02123045_991.png
bagnet9,1,780,NaN,keyboard,boat,2-10-10,0780_eid_dnn_2-10-10_boat_10_n03344393_12262.png
bagnet9,1,781,NaN,cat,cat,32-10-10,0781_eid_dnn_32-10-10_cat_10_n02125311_57758.png
bagnet9,1,782,NaN,dog,dog,2-10-10,0782_eid_dnn_2-10-10_dog_10_n02110806_5427.png
bagnet9,1,783,NaN,truck,car,2-10-10,0783_eid_dnn_2-10-10_car_10_n02814533_9812.png
bagnet9,1,784,NaN,bottle,chair,16-10-10,0784_eid_dnn_16-10-10_chair_10_n04429376_13751.png
bagnet9,1,785,NaN,cat,keyboard,128-10-10,0785_eid_dnn_128-10-10_keyboard_10_n03085013_3257.png
bagnet9,1,786,NaN,cat,airplane,16-10-10,0786_eid_dnn_16-10-10_airplane_10_n02690373_4079.png
bagnet9,1,787,NaN,elephant,keyboard,128-10-10,0787_eid_dnn_128-10-10_keyboard_10_n03085013_24963.png
bagnet9,1,788,NaN,cat,boat,32-10-10,0788_eid_dnn_32-10-10_boat_10_n03344393_6978.png
bagnet9,1,789,NaN,cat,truck,64-10-10,0789_eid_dnn_64-10-10_truck_10_n03796401_10276.png
bagnet9,1,790,NaN,cat,truck,8-10-10,0790_eid_dnn_8-10-10_truck_10_n03417042_19047.png
bagnet9,1,791,NaN,cat,knife,64-10-10,0791_eid_dnn_64-10-10_knife_10_n03041632_55953.png
bagnet9,1,792,NaN,bottle,bird,4-10-10,0792_eid_dnn_4-10-10_bird_10_n01558993_4801.png
bagnet9,1,793,NaN,dog,bird,32-10-10,0793_eid_dnn_32-10-10_bird_10_n01824575_12101.png
bagnet9,1,794,NaN,cat,oven,128-10-10,0794_eid_dnn_128-10-10_oven_10_n04111531_12769.png
bagnet9,1,795,NaN,cat,bird,16-10-10,0795_eid_dnn_16-10-10_bird_10_n02009229_5090.png
bagnet9,1,796,NaN,cat,dog,32-10-10,0796_eid_dnn_32-10-10_dog_10_n02102040_2743.png
bagnet9,1,797,NaN,keyboard,clock,4-10-10,0797_eid_dnn_4-10-10_clock_10_n02708093_6673.png
bagnet9,1,798,NaN,dog,cat,16-10-10,0798_eid_dnn_16-10-10_cat_10_n02123159_6954.png
bagnet9,1,799,NaN,cat,chair,32-10-10,0799_eid_dnn_32-10-10_chair_10_n04099969_25327.png
bagnet9,1,800,NaN,cat,truck,16-10-10,0800_eid_dnn_16-10-10_truck_10_n04467665_11776.png
bagnet9,1,801,NaN,cat,knife,32-10-10,0801_eid_dnn_32-10-10_knife_10_n03041632_26340.png
bagnet9,1,802,NaN,elephant,oven,32-10-10,0802_eid_dnn_32-10-10_oven_10_n04111531_1362.png
bagnet9,1,803,NaN,dog,bicycle,8-10-10,0803_eid_dnn_8-10-10_bicycle_10_n02835271_419.png
bagnet9,1,804,NaN,keyboard,bicycle,2-10-10,0804_eid_dnn_2-10-10_bicycle_10_n03792782_11720.png
bagnet9,1,805,NaN,dog,elephant,4-10-10,0805_eid_dnn_4-10-10_elephant_10_n02504013_19769.png
bagnet9,1,806,NaN,cat,keyboard,64-10-10,0806_eid_dnn_64-10-10_keyboard_10_n03085013_19891.png
bagnet9,1,807,NaN,cat,airplane,64-10-10,0807_eid_dnn_64-10-10_airplane_10_n02690373_1862.png
bagnet9,1,808,NaN,dog,bird,16-10-10,0808_eid_dnn_16-10-10_bird_10_n01616318_8488.png
bagnet9,1,809,NaN,cat,car,32-10-10,0809_eid_dnn_32-10-10_car_10_n03100240_20061.png
bagnet9,1,810,NaN,bicycle,chair,4-10-10,0810_eid_dnn_4-10-10_chair_10_n04099969_17866.png
bagnet9,1,811,NaN,dog,elephant,8-10-10,0811_eid_dnn_8-10-10_elephant_10_n02504458_6931.png
bagnet9,1,812,NaN,bird,bear,16-10-10,0812_eid_dnn_16-10-10_bear_10_n02134418_2714.png
bagnet9,1,813,NaN,dog,dog,32-10-10,0813_eid_dnn_32-10-10_dog_10_n02111277_21812.png
bagnet9,1,814,NaN,cat,dog,16-10-10,0814_eid_dnn_16-10-10_dog_10_n02086646_7544.png
bagnet9,1,815,NaN,cat,boat,16-10-10,0815_eid_dnn_16-10-10_boat_10_n02951358_33918.png
bagnet9,1,816,NaN,dog,oven,16-10-10,0816_eid_dnn_16-10-10_oven_10_n04111531_7130.png
bagnet9,1,817,NaN,cat,clock,32-10-10,0817_eid_dnn_32-10-10_clock_10_n04548280_5937.png
bagnet9,1,818,NaN,dog,bird,32-10-10,0818_eid_dnn_32-10-10_bird_10_n01819313_1422.png
bagnet9,1,819,NaN,dog,elephant,4-10-10,0819_eid_dnn_4-10-10_elephant_10_n02504458_7342.png
bagnet9,1,820,NaN,elephant,knife,128-10-10,0820_eid_dnn_128-10-10_knife_10_n03041632_7982.png
bagnet9,1,821,NaN,airplane,airplane,8-10-10,0821_eid_dnn_8-10-10_airplane_10_n02690373_4586.png
bagnet9,1,822,NaN,cat,clock,16-10-10,0822_eid_dnn_16-10-10_clock_10_n02708093_4255.png
bagnet9,1,823,NaN,elephant,oven,128-10-10,0823_eid_dnn_128-10-10_oven_10_n04111531_3191.png
bagnet9,1,824,NaN,airplane,airplane,1-10-10,0824_eid_dnn_1-10-10_airplane_10_n02690373_5465.png
bagnet9,1,825,NaN,cat,chair,64-10-10,0825_eid_dnn_64-10-10_chair_10_n02791124_373.png
bagnet9,1,826,NaN,cat,boat,32-10-10,0826_eid_dnn_32-10-10_boat_10_n03662601_1158.png
bagnet9,1,827,NaN,cat,elephant,64-10-10,0827_eid_dnn_64-10-10_elephant_10_n02504013_978.png
bagnet9,1,828,NaN,dog,chair,32-10-10,0828_eid_dnn_32-10-10_chair_10_n02791124_6492.png
bagnet9,1,829,NaN,car,car,1-10-10,0829_eid_dnn_1-10-10_car_10_n03100240_9892.png
bagnet9,1,830,NaN,airplane,airplane,4-10-10,0830_eid_dnn_4-10-10_airplane_10_n02690373_1489.png
bagnet9,1,831,NaN,cat,dog,128-10-10,0831_eid_dnn_128-10-10_dog_10_n02090622_7102.png
bagnet9,1,832,NaN,boat,boat,2-10-10,0832_eid_dnn_2-10-10_boat_10_n04273569_72.png
bagnet9,1,833,NaN,bicycle,bicycle,2-10-10,0833_eid_dnn_2-10-10_bicycle_10_n02835271_2625.png
bagnet9,1,834,NaN,cat,cat,64-10-10,0834_eid_dnn_64-10-10_cat_10_n02123159_15664.png
bagnet9,1,835,NaN,clock,clock,1-10-10,0835_eid_dnn_1-10-10_clock_10_n04548280_4562.png
bagnet9,1,836,NaN,bottle,bottle,2-10-10,0836_eid_dnn_2-10-10_bottle_10_n04591713_6905.png
bagnet9,1,837,NaN,airplane,airplane,4-10-10,0837_eid_dnn_4-10-10_airplane_10_n02690373_166.png
bagnet9,1,838,NaN,keyboard,oven,2-10-10,0838_eid_dnn_2-10-10_oven_10_n04111531_3193.png
bagnet9,1,839,NaN,cat,elephant,16-10-10,0839_eid_dnn_16-10-10_elephant_10_n02504458_5274.png
bagnet9,1,840,NaN,elephant,keyboard,64-10-10,0840_eid_dnn_64-10-10_keyboard_10_n04505470_5131.png
bagnet9,1,841,NaN,airplane,airplane,2-10-10,0841_eid_dnn_2-10-10_airplane_10_n02690373_19074.png
bagnet9,1,842,NaN,cat,bottle,64-10-10,0842_eid_dnn_64-10-10_bottle_10_n03983396_16257.png
bagnet9,1,843,NaN,chair,bear,32-10-10,0843_eid_dnn_32-10-10_bear_10_n02134418_3470.png
bagnet9,1,844,NaN,cat,bear,8-10-10,0844_eid_dnn_8-10-10_bear_10_n02132136_3196.png
bagnet9,1,845,NaN,cat,bear,128-10-10,0845_eid_dnn_128-10-10_bear_10_n02133161_10184.png
bagnet9,1,846,NaN,cat,truck,128-10-10,0846_eid_dnn_128-10-10_truck_10_n03417042_3351.png
bagnet9,1,847,NaN,bird,bird,128-10-10,0847_eid_dnn_128-10-10_bird_10_n02013706_6676.png
bagnet9,1,848,NaN,cat,airplane,128-10-10,0848_eid_dnn_128-10-10_airplane_10_n02690373_9946.png
bagnet9,1,849,NaN,cat,car,32-10-10,0849_eid_dnn_32-10-10_car_10_n04285008_8838.png
bagnet9,1,850,NaN,bird,car,128-10-10,0850_eid_dnn_128-10-10_car_10_n02814533_40350.png
bagnet9,1,851,NaN,cat,cat,1-10-10,0851_eid_dnn_1-10-10_cat_10_n02123159_12734.png
bagnet9,1,852,NaN,airplane,airplane,2-10-10,0852_eid_dnn_2-10-10_airplane_10_n02690373_17063.png
bagnet9,1,853,NaN,knife,bottle,4-10-10,0853_eid_dnn_4-10-10_bottle_10_n04560804_31443.png
bagnet9,1,854,NaN,keyboard,keyboard,2-10-10,0854_eid_dnn_2-10-10_keyboard_10_n03085013_22713.png
bagnet9,1,855,NaN,bicycle,truck,1-10-10,0855_eid_dnn_1-10-10_truck_10_n04467665_21969.png
bagnet9,1,856,NaN,dog,bear,16-10-10,0856_eid_dnn_16-10-10_bear_10_n02134084_712.png
bagnet9,1,857,NaN,elephant,oven,128-10-10,0857_eid_dnn_128-10-10_oven_10_n04111531_15635.png
bagnet9,1,858,NaN,cat,keyboard,128-10-10,0858_eid_dnn_128-10-10_keyboard_10_n03085013_5568.png
bagnet9,1,859,NaN,cat,chair,128-10-10,0859_eid_dnn_128-10-10_chair_10_n02791124_1059.png
bagnet9,1,860,NaN,airplane,airplane,4-10-10,0860_eid_dnn_4-10-10_airplane_10_n02690373_4866.png
bagnet9,1,861,NaN,cat,dog,128-10-10,0861_eid_dnn_128-10-10_dog_10_n02086910_13835.png
bagnet9,1,862,NaN,knife,knife,1-10-10,0862_eid_dnn_1-10-10_knife_10_n03041632_9488.png
bagnet9,1,863,NaN,airplane,airplane,2-10-10,0863_eid_dnn_2-10-10_airplane_10_n02690373_9170.png
bagnet9,1,864,NaN,dog,boat,8-10-10,0864_eid_dnn_8-10-10_boat_10_n03662601_12323.png
bagnet9,1,865,NaN,cat,boat,128-10-10,0865_eid_dnn_128-10-10_boat_10_n02951358_3188.png
bagnet9,1,866,NaN,elephant,cat,64-10-10,0866_eid_dnn_64-10-10_cat_10_n02123159_4051.png
bagnet9,1,867,NaN,cat,airplane,64-10-10,0867_eid_dnn_64-10-10_airplane_10_n02690373_10931.png
bagnet9,1,868,NaN,cat,clock,16-10-10,0868_eid_dnn_16-10-10_clock_10_n04548280_6989.png
bagnet9,1,869,NaN,cat,car,64-10-10,0869_eid_dnn_64-10-10_car_10_n02814533_52045.png
bagnet9,1,870,NaN,bicycle,chair,1-10-10,0870_eid_dnn_1-10-10_chair_10_n04099969_5524.png
bagnet9,1,871,NaN,cat,clock,128-10-10,0871_eid_dnn_128-10-10_clock_10_n04548280_8162.png
bagnet9,1,872,NaN,dog,bear,1-10-10,0872_eid_dnn_1-10-10_bear_10_n02132136_7796.png
bagnet9,1,873,NaN,keyboard,car,4-10-10,0873_eid_dnn_4-10-10_car_10_n04285008_10442.png
bagnet9,1,874,NaN,knife,bottle,16-10-10,0874_eid_dnn_16-10-10_bottle_10_n04579145_5777.png
bagnet9,1,875,NaN,dog,bicycle,1-10-10,0875_eid_dnn_1-10-10_bicycle_10_n03792782_13324.png
bagnet9,1,876,NaN,dog,bird,1-10-10,0876_eid_dnn_1-10-10_bird_10_n01860187_18561.png
bagnet9,1,877,NaN,airplane,airplane,1-10-10,0877_eid_dnn_1-10-10_airplane_10_n02690373_13324.png
bagnet9,1,878,NaN,dog,knife,1-10-10,0878_eid_dnn_1-10-10_knife_10_n03041632_89391.png
bagnet9,1,879,NaN,dog,car,16-10-10,0879_eid_dnn_16-10-10_car_10_n02814533_69750.png
bagnet9,1,880,NaN,dog,car,8-10-10,0880_eid_dnn_8-10-10_car_10_n04285008_12589.png
bagnet9,1,881,NaN,dog,knife,1-10-10,0881_eid_dnn_1-10-10_knife_10_n03041632_98864.png
bagnet9,1,882,NaN,dog,cat,4-10-10,0882_eid_dnn_4-10-10_cat_10_n02123159_491.png
bagnet9,1,883,NaN,keyboard,bottle,4-10-10,0883_eid_dnn_4-10-10_bottle_10_n02823428_4172.png
bagnet9,1,884,NaN,dog,elephant,16-10-10,0884_eid_dnn_16-10-10_elephant_10_n02504013_17391.png
bagnet9,1,885,NaN,cat,cat,32-10-10,0885_eid_dnn_32-10-10_cat_10_n02125311_14156.png
bagnet9,1,886,NaN,dog,bicycle,8-10-10,0886_eid_dnn_8-10-10_bicycle_10_n03792782_17430.png
bagnet9,1,887,NaN,chair,oven,1-10-10,0887_eid_dnn_1-10-10_oven_10_n04111531_6172.png
bagnet9,1,888,NaN,chair,chair,1-10-10,0888_eid_dnn_1-10-10_chair_10_n04099969_24378.png
bagnet9,1,889,NaN,boat,boat,4-10-10,0889_eid_dnn_4-10-10_boat_10_n03662601_10589.png
bagnet9,1,890,NaN,dog,truck,16-10-10,0890_eid_dnn_16-10-10_truck_10_n03417042_10117.png
bagnet9,1,891,NaN,elephant,clock,64-10-10,0891_eid_dnn_64-10-10_clock_10_n03196217_8072.png
bagnet9,1,892,NaN,cat,bottle,64-10-10,0892_eid_dnn_64-10-10_bottle_10_n04560804_2776.png
bagnet9,1,893,NaN,dog,dog,2-10-10,0893_eid_dnn_2-10-10_dog_10_n02102177_7637.png
bagnet9,1,894,NaN,chair,knife,2-10-10,0894_eid_dnn_2-10-10_knife_10_n03041632_7064.png
bagnet9,1,895,NaN,boat,boat,2-10-10,0895_eid_dnn_2-10-10_boat_10_n02951358_29724.png
bagnet9,1,896,NaN,keyboard,oven,1-10-10,0896_eid_dnn_1-10-10_oven_10_n04111531_10436.png
bagnet9,1,897,NaN,elephant,elephant,32-10-10,0897_eid_dnn_32-10-10_elephant_10_n02504458_11618.png
bagnet9,1,898,NaN,cat,dog,8-10-10,0898_eid_dnn_8-10-10_dog_10_n02086079_15773.png
bagnet9,1,899,NaN,elephant,airplane,32-10-10,0899_eid_dnn_32-10-10_airplane_10_n02690373_6536.png
bagnet9,1,900,NaN,cat,truck,32-10-10,0900_eid_dnn_32-10-10_truck_10_n03796401_1213.png
bagnet9,1,901,NaN,dog,knife,8-10-10,0901_eid_dnn_8-10-10_knife_10_n03041632_49363.png
bagnet9,1,902,NaN,cat,airplane,32-10-10,0902_eid_dnn_32-10-10_airplane_10_n02690373_6831.png
bagnet9,1,903,NaN,bear,bear,2-10-10,0903_eid_dnn_2-10-10_bear_10_n02134418_551.png
bagnet9,1,904,NaN,cat,knife,32-10-10,0904_eid_dnn_32-10-10_knife_10_n03041632_93026.png
bagnet9,1,905,NaN,cat,chair,32-10-10,0905_eid_dnn_32-10-10_chair_10_n04099969_18744.png
bagnet9,1,906,NaN,cat,oven,128-10-10,0906_eid_dnn_128-10-10_oven_10_n04111531_520.png
bagnet9,1,907,NaN,cat,chair,64-10-10,0907_eid_dnn_64-10-10_chair_10_n02791124_5845.png
bagnet9,1,908,NaN,cat,elephant,16-10-10,0908_eid_dnn_16-10-10_elephant_10_n02504458_361.png
bagnet9,1,909,NaN,dog,knife,4-10-10,0909_eid_dnn_4-10-10_knife_10_n03041632_35365.png
bagnet9,1,910,NaN,dog,bicycle,4-10-10,0910_eid_dnn_4-10-10_bicycle_10_n03792782_15627.png
bagnet9,1,911,NaN,cat,dog,64-10-10,0911_eid_dnn_64-10-10_dog_10_n02109525_46113.png
bagnet9,1,912,NaN,cat,clock,128-10-10,0912_eid_dnn_128-10-10_clock_10_n04548280_8841.png
bagnet9,1,913,NaN,dog,bottle,8-10-10,0913_eid_dnn_8-10-10_bottle_10_n03937543_4763.png
bagnet9,1,914,NaN,dog,oven,8-10-10,0914_eid_dnn_8-10-10_oven_10_n04111531_3159.png
bagnet9,1,915,NaN,dog,dog,8-10-10,0915_eid_dnn_8-10-10_dog_10_n02097474_15157.png
bagnet9,1,916,NaN,cat,boat,16-10-10,0916_eid_dnn_16-10-10_boat_10_n04273569_31564.png
bagnet9,1,917,NaN,cat,cat,128-10-10,0917_eid_dnn_128-10-10_cat_10_n02124075_10566.png
bagnet9,1,918,NaN,dog,cat,4-10-10,0918_eid_dnn_4-10-10_cat_10_n02123597_2030.png
bagnet9,1,919,NaN,cat,dog,32-10-10,0919_eid_dnn_32-10-10_dog_10_n02088466_9891.png
bagnet9,1,920,NaN,dog,dog,8-10-10,0920_eid_dnn_8-10-10_dog_10_n02086646_6773.png
bagnet9,1,921,NaN,cat,clock,32-10-10,0921_eid_dnn_32-10-10_clock_10_n03196217_3951.png
bagnet9,1,922,NaN,dog,elephant,1-10-10,0922_eid_dnn_1-10-10_elephant_10_n02504013_21311.png
bagnet9,1,923,NaN,dog,dog,1-10-10,0923_eid_dnn_1-10-10_dog_10_n02086240_1567.png
bagnet9,1,924,NaN,cat,bird,64-10-10,0924_eid_dnn_64-10-10_bird_10_n01860187_15592.png
bagnet9,1,925,NaN,cat,truck,128-10-10,0925_eid_dnn_128-10-10_truck_10_n04467665_4165.png
bagnet9,1,926,NaN,dog,dog,1-10-10,0926_eid_dnn_1-10-10_dog_10_n02095570_11450.png
bagnet9,1,927,NaN,dog,truck,16-10-10,0927_eid_dnn_16-10-10_truck_10_n03417042_26971.png
bagnet9,1,928,NaN,dog,bear,1-10-10,0928_eid_dnn_1-10-10_bear_10_n02133161_2970.png
bagnet9,1,929,NaN,airplane,boat,2-10-10,0929_eid_dnn_2-10-10_boat_10_n03344393_2254.png
bagnet9,1,930,NaN,cat,airplane,32-10-10,0930_eid_dnn_32-10-10_airplane_10_n02690373_7908.png
bagnet9,1,931,NaN,cat,keyboard,128-10-10,0931_eid_dnn_128-10-10_keyboard_10_n03085013_19882.png
bagnet9,1,932,NaN,chair,clock,1-10-10,0932_eid_dnn_1-10-10_clock_10_n04548280_748.png
bagnet9,1,933,NaN,cat,car,64-10-10,0933_eid_dnn_64-10-10_car_10_n04285008_6102.png
bagnet9,1,934,NaN,elephant,chair,128-10-10,0934_eid_dnn_128-10-10_chair_10_n02791124_3241.png
bagnet9,1,935,NaN,clock,clock,1-10-10,0935_eid_dnn_1-10-10_clock_10_n02708093_3996.png
bagnet9,1,936,NaN,cat,bird,128-10-10,0936_eid_dnn_128-10-10_bird_10_n01843065_5080.png
bagnet9,1,937,NaN,knife,bird,2-10-10,0937_eid_dnn_2-10-10_bird_10_n02027492_10281.png
bagnet9,1,938,NaN,chair,keyboard,2-10-10,0938_eid_dnn_2-10-10_keyboard_10_n03085013_23552.png
bagnet9,1,939,NaN,airplane,chair,8-10-10,0939_eid_dnn_8-10-10_chair_10_n02791124_5319.png
bagnet9,1,940,NaN,car,knife,2-10-10,0940_eid_dnn_2-10-10_knife_10_n03041632_927.png
bagnet9,1,941,NaN,cat,bird,16-10-10,0941_eid_dnn_16-10-10_bird_10_n02018207_16716.png
bagnet9,1,942,NaN,dog,bird,32-10-10,0942_eid_dnn_32-10-10_bird_10_n01622779_66.png
bagnet9,1,943,NaN,elephant,bicycle,64-10-10,0943_eid_dnn_64-10-10_bicycle_10_n03792782_9004.png
bagnet9,1,944,NaN,chair,bicycle,4-10-10,0944_eid_dnn_4-10-10_bicycle_10_n03792782_4207.png
bagnet9,1,945,NaN,cat,oven,64-10-10,0945_eid_dnn_64-10-10_oven_10_n04111531_5038.png
bagnet9,1,946,NaN,bicycle,bicycle,2-10-10,0946_eid_dnn_2-10-10_bicycle_10_n02835271_15038.png
bagnet9,1,947,NaN,bottle,clock,1-10-10,0947_eid_dnn_1-10-10_clock_10_n02708093_57.png
bagnet9,1,948,NaN,dog,bird,2-10-10,0948_eid_dnn_2-10-10_bird_10_n02009912_20610.png
bagnet9,1,949,NaN,dog,bird,8-10-10,0949_eid_dnn_8-10-10_bird_10_n02002724_1484.png
bagnet9,1,950,NaN,elephant,car,32-10-10,0950_eid_dnn_32-10-10_car_10_n02814533_42059.png
bagnet9,1,951,NaN,dog,elephant,2-10-10,0951_eid_dnn_2-10-10_elephant_10_n02504013_10390.png
bagnet9,1,952,NaN,dog,bear,16-10-10,0952_eid_dnn_16-10-10_bear_10_n02133161_7080.png
bagnet9,1,953,NaN,dog,keyboard,8-10-10,0953_eid_dnn_8-10-10_keyboard_10_n04505470_4616.png
bagnet9,1,954,NaN,cat,bicycle,32-10-10,0954_eid_dnn_32-10-10_bicycle_10_n02835271_19834.png
bagnet9,1,955,NaN,cat,bottle,32-10-10,0955_eid_dnn_32-10-10_bottle_10_n04591713_7561.png
bagnet9,1,956,NaN,dog,keyboard,32-10-10,0956_eid_dnn_32-10-10_keyboard_10_n04505470_5173.png
bagnet9,1,957,NaN,car,car,1-10-10,0957_eid_dnn_1-10-10_car_10_n02814533_13977.png
bagnet9,1,958,NaN,dog,knife,2-10-10,0958_eid_dnn_2-10-10_knife_10_n03041632_37949.png
bagnet9,1,959,NaN,cat,bird,128-10-10,0959_eid_dnn_128-10-10_bird_10_n01582220_359.png
bagnet9,1,960,NaN,dog,truck,8-10-10,0960_eid_dnn_8-10-10_truck_10_n03796401_24341.png
bagnet9,1,961,NaN,dog,bottle,16-10-10,0961_eid_dnn_16-10-10_bottle_10_n02823428_4282.png
bagnet9,1,962,NaN,elephant,airplane,128-10-10,0962_eid_dnn_128-10-10_airplane_10_n02690373_9963.png
bagnet9,1,963,NaN,elephant,elephant,1-10-10,0963_eid_dnn_1-10-10_elephant_10_n02504013_130.png
bagnet9,1,964,NaN,cat,keyboard,64-10-10,0964_eid_dnn_64-10-10_keyboard_10_n03085013_20218.png
bagnet9,1,965,NaN,dog,bear,8-10-10,0965_eid_dnn_8-10-10_bear_10_n02132136_2203.png
bagnet9,1,966,NaN,keyboard,keyboard,1-10-10,0966_eid_dnn_1-10-10_keyboard_10_n04505470_4668.png
bagnet9,1,967,NaN,knife,knife,1-10-10,0967_eid_dnn_1-10-10_knife_10_n03041632_16172.png
bagnet9,1,968,NaN,dog,keyboard,16-10-10,0968_eid_dnn_16-10-10_keyboard_10_n04505470_1067.png
bagnet9,1,969,NaN,cat,dog,32-10-10,0969_eid_dnn_32-10-10_dog_10_n02107908_2313.png
bagnet9,1,970,NaN,cat,bear,128-10-10,0970_eid_dnn_128-10-10_bear_10_n02132136_3873.png
bagnet9,1,971,NaN,boat,boat,1-10-10,0971_eid_dnn_1-10-10_boat_10_n03344393_6103.png
bagnet9,1,972,NaN,cat,chair,128-10-10,0972_eid_dnn_128-10-10_chair_10_n02791124_15934.png
bagnet9,1,973,NaN,cat,boat,128-10-10,0973_eid_dnn_128-10-10_boat_10_n03662601_2438.png
bagnet9,1,974,NaN,cat,cat,16-10-10,0974_eid_dnn_16-10-10_cat_10_n02123597_14771.png
bagnet9,1,975,NaN,knife,knife,16-10-10,0975_eid_dnn_16-10-10_knife_10_n03041632_37513.png
bagnet9,1,976,NaN,cat,bicycle,64-10-10,0976_eid_dnn_64-10-10_bicycle_10_n02835271_15617.png
bagnet9,1,977,NaN,dog,dog,4-10-10,0977_eid_dnn_4-10-10_dog_10_n02102973_13.png
bagnet9,1,978,NaN,knife,boat,64-10-10,0978_eid_dnn_64-10-10_boat_10_n03344393_4012.png
bagnet9,1,979,NaN,knife,clock,16-10-10,0979_eid_dnn_16-10-10_clock_10_n02708093_3365.png
bagnet9,1,980,NaN,truck,truck,2-10-10,0980_eid_dnn_2-10-10_truck_10_n04467665_20700.png
bagnet9,1,981,NaN,chair,oven,4-10-10,0981_eid_dnn_4-10-10_oven_10_n04111531_3076.png
bagnet9,1,982,NaN,cat,car,8-10-10,0982_eid_dnn_8-10-10_car_10_n02814533_39807.png
bagnet9,1,983,NaN,elephant,truck,64-10-10,0983_eid_dnn_64-10-10_truck_10_n04467665_66624.png
bagnet9,1,984,NaN,dog,truck,16-10-10,0984_eid_dnn_16-10-10_truck_10_n04467665_30504.png
bagnet9,1,985,NaN,truck,car,2-10-10,0985_eid_dnn_2-10-10_car_10_n03100240_7066.png
bagnet9,1,986,NaN,elephant,oven,128-10-10,0986_eid_dnn_128-10-10_oven_10_n04111531_9304.png
bagnet9,1,987,NaN,bottle,airplane,64-10-10,0987_eid_dnn_64-10-10_airplane_10_n02690373_4845.png
bagnet9,1,988,NaN,airplane,boat,4-10-10,0988_eid_dnn_4-10-10_boat_10_n03662601_81.png
bagnet9,1,989,NaN,cat,elephant,64-10-10,0989_eid_dnn_64-10-10_elephant_10_n02504458_1985.png
bagnet9,1,990,NaN,cat,cat,2-10-10,0990_eid_dnn_2-10-10_cat_10_n02124075_5953.png
bagnet9,1,991,NaN,dog,bird,2-10-10,0991_eid_dnn_2-10-10_bird_10_n02009912_18125.png
bagnet9,1,992,NaN,cat,clock,16-10-10,0992_eid_dnn_16-10-10_clock_10_n04548280_3541.png
bagnet9,1,993,NaN,knife,clock,4-10-10,0993_eid_dnn_4-10-10_clock_10_n04548280_2778.png
bagnet9,1,994,NaN,dog,clock,4-10-10,0994_eid_dnn_4-10-10_clock_10_n04548280_4275.png
bagnet9,1,995,NaN,cat,knife,32-10-10,0995_eid_dnn_32-10-10_knife_10_n03041632_3717.png
bagnet9,1,996,NaN,dog,clock,8-10-10,0996_eid_dnn_8-10-10_clock_10_n03196217_6831.png
bagnet9,1,997,NaN,dog,oven,2-10-10,0997_eid_dnn_2-10-10_oven_10_n04111531_5218.png
bagnet9,1,998,NaN,cat,truck,8-10-10,0998_eid_dnn_8-10-10_truck_10_n03796401_1150.png
bagnet9,1,999,NaN,dog,oven,8-10-10,0999_eid_dnn_8-10-10_oven_10_n04111531_4809.png
bagnet9,1,1000,NaN,knife,airplane,16-10-10,1000_eid_dnn_16-10-10_airplane_10_n02690373_3100.png
bagnet9,1,1001,NaN,cat,bird,8-10-10,1001_eid_dnn_8-10-10_bird_10_n01514859_1421.png
bagnet9,1,1002,NaN,dog,boat,16-10-10,1002_eid_dnn_16-10-10_boat_10_n04273569_17671.png
bagnet9,1,1003,NaN,dog,dog,2-10-10,1003_eid_dnn_2-10-10_dog_10_n02085936_2225.png
bagnet9,1,1004,NaN,cat,elephant,32-10-10,1004_eid_dnn_32-10-10_elephant_10_n02504458_5641.png
bagnet9,1,1005,NaN,elephant,car,64-10-10,1005_eid_dnn_64-10-10_car_10_n03100240_3267.png
bagnet9,1,1006,NaN,cat,chair,64-10-10,1006_eid_dnn_64-10-10_chair_10_n04429376_6147.png
bagnet9,1,1007,NaN,cat,bear,64-10-10,1007_eid_dnn_64-10-10_bear_10_n02132136_20009.png
bagnet9,1,1008,NaN,dog,bicycle,4-10-10,1008_eid_dnn_4-10-10_bicycle_10_n02835271_17326.png
bagnet9,1,1009,NaN,cat,clock,128-10-10,1009_eid_dnn_128-10-10_clock_10_n03196217_11714.png
bagnet9,1,1010,NaN,bear,bear,2-10-10,1010_eid_dnn_2-10-10_bear_10_n02134418_8516.png
bagnet9,1,1011,NaN,cat,boat,64-10-10,1011_eid_dnn_64-10-10_boat_10_n04612504_14480.png
bagnet9,1,1012,NaN,chair,keyboard,4-10-10,1012_eid_dnn_4-10-10_keyboard_10_n03085013_6978.png
bagnet9,1,1013,NaN,keyboard,chair,4-10-10,1013_eid_dnn_4-10-10_chair_10_n04099969_1792.png
bagnet9,1,1014,NaN,dog,dog,4-10-10,1014_eid_dnn_4-10-10_dog_10_n02097130_4088.png
bagnet9,1,1015,NaN,cat,truck,32-10-10,1015_eid_dnn_32-10-10_truck_10_n03417042_28832.png
bagnet9,1,1016,NaN,keyboard,keyboard,2-10-10,1016_eid_dnn_2-10-10_keyboard_10_n03085013_24087.png
bagnet9,1,1017,NaN,truck,chair,1-10-10,1017_eid_dnn_1-10-10_chair_10_n03376595_14729.png
bagnet9,1,1018,NaN,airplane,airplane,2-10-10,1018_eid_dnn_2-10-10_airplane_10_n02690373_9247.png
bagnet9,1,1019,NaN,cat,car,128-10-10,1019_eid_dnn_128-10-10_car_10_n04285008_2653.png
bagnet9,1,1020,NaN,clock,keyboard,2-10-10,1020_eid_dnn_2-10-10_keyboard_10_n04505470_4624.png
bagnet9,1,1021,NaN,cat,clock,128-10-10,1021_eid_dnn_128-10-10_clock_10_n02708093_2845.png
bagnet9,1,1022,NaN,airplane,airplane,4-10-10,1022_eid_dnn_4-10-10_airplane_10_n02690373_3859.png
bagnet9,1,1023,NaN,cat,elephant,8-10-10,1023_eid_dnn_8-10-10_elephant_10_n02504458_4448.png
bagnet9,1,1024,NaN,dog,bottle,2-10-10,1024_eid_dnn_2-10-10_bottle_10_n04557648_4008.png
bagnet9,1,1025,NaN,cat,chair,8-10-10,1025_eid_dnn_8-10-10_chair_10_n03376595_1044.png
bagnet9,1,1026,NaN,cat,clock,32-10-10,1026_eid_dnn_32-10-10_clock_10_n04548280_7354.png
bagnet9,1,1027,NaN,dog,bicycle,16-10-10,1027_eid_dnn_16-10-10_bicycle_10_n03792782_7688.png
bagnet9,1,1028,NaN,keyboard,keyboard,1-10-10,1028_eid_dnn_1-10-10_keyboard_10_n04505470_4702.png
bagnet9,1,1029,NaN,dog,bottle,16-10-10,1029_eid_dnn_16-10-10_bottle_10_n03983396_486.png
bagnet9,1,1030,NaN,elephant,bicycle,128-10-10,1030_eid_dnn_128-10-10_bicycle_10_n03792782_18687.png
bagnet9,1,1031,NaN,elephant,truck,2-10-10,1031_eid_dnn_2-10-10_truck_10_n04467665_55499.png
bagnet9,1,1032,NaN,airplane,airplane,1-10-10,1032_eid_dnn_1-10-10_airplane_10_n02690373_10210.png
bagnet9,1,1033,NaN,cat,airplane,16-10-10,1033_eid_dnn_16-10-10_airplane_10_n02690373_10402.png
bagnet9,1,1034,NaN,cat,bottle,32-10-10,1034_eid_dnn_32-10-10_bottle_10_n04579145_2303.png
bagnet9,1,1035,NaN,dog,elephant,8-10-10,1035_eid_dnn_8-10-10_elephant_10_n02504013_6120.png
bagnet9,1,1036,NaN,cat,bear,32-10-10,1036_eid_dnn_32-10-10_bear_10_n02134418_4050.png
bagnet9,1,1037,NaN,elephant,elephant,4-10-10,1037_eid_dnn_4-10-10_elephant_10_n02504458_6185.png
bagnet9,1,1038,NaN,knife,boat,32-10-10,1038_eid_dnn_32-10-10_boat_10_n03344393_897.png
bagnet9,1,1039,NaN,elephant,dog,64-10-10,1039_eid_dnn_64-10-10_dog_10_n02099429_1118.png
bagnet9,1,1040,NaN,truck,car,1-10-10,1040_eid_dnn_1-10-10_car_10_n03100240_9019.png
bagnet9,1,1041,NaN,cat,airplane,32-10-10,1041_eid_dnn_32-10-10_airplane_10_n02690373_4588.png
bagnet9,1,1042,NaN,cat,cat,4-10-10,1042_eid_dnn_4-10-10_cat_10_n02124075_14881.png
bagnet9,1,1043,NaN,elephant,bottle,128-10-10,1043_eid_dnn_128-10-10_bottle_10_n04557648_6010.png
bagnet9,1,1044,NaN,elephant,bicycle,64-10-10,1044_eid_dnn_64-10-10_bicycle_10_n03792782_14492.png
bagnet9,1,1045,NaN,dog,bottle,16-10-10,1045_eid_dnn_16-10-10_bottle_10_n04557648_1360.png
bagnet9,1,1046,NaN,cat,bird,32-10-10,1046_eid_dnn_32-10-10_bird_10_n01795545_15065.png
bagnet9,1,1047,NaN,cat,oven,64-10-10,1047_eid_dnn_64-10-10_oven_10_n04111531_1922.png
bagnet9,1,1048,NaN,dog,car,4-10-10,1048_eid_dnn_4-10-10_car_10_n02814533_2654.png
bagnet9,1,1049,NaN,dog,elephant,8-10-10,1049_eid_dnn_8-10-10_elephant_10_n02504458_3342.png
bagnet9,1,1050,NaN,airplane,airplane,4-10-10,1050_eid_dnn_4-10-10_airplane_10_n02690373_5797.png
bagnet9,1,1051,NaN,dog,bear,4-10-10,1051_eid_dnn_4-10-10_bear_10_n02134418_3287.png
bagnet9,1,1052,NaN,elephant,car,32-10-10,1052_eid_dnn_32-10-10_car_10_n02814533_28171.png
bagnet9,1,1053,NaN,cat,dog,128-10-10,1053_eid_dnn_128-10-10_dog_10_n02108551_5950.png
bagnet9,1,1054,NaN,dog,bird,4-10-10,1054_eid_dnn_4-10-10_bird_10_n02009912_645.png
bagnet9,1,1055,NaN,clock,knife,2-10-10,1055_eid_dnn_2-10-10_knife_10_n03041632_51339.png
bagnet9,1,1056,NaN,dog,knife,4-10-10,1056_eid_dnn_4-10-10_knife_10_n03041632_25331.png
bagnet9,1,1057,NaN,elephant,car,128-10-10,1057_eid_dnn_128-10-10_car_10_n03100240_3858.png
bagnet9,1,1058,NaN,dog,bird,1-10-10,1058_eid_dnn_1-10-10_bird_10_n01614925_7618.png
bagnet9,1,1059,NaN,dog,oven,2-10-10,1059_eid_dnn_2-10-10_oven_10_n04111531_8082.png
bagnet9,1,1060,NaN,cat,cat,1-10-10,1060_eid_dnn_1-10-10_cat_10_n02123394_2347.png
bagnet9,1,1061,NaN,elephant,bottle,64-10-10,1061_eid_dnn_64-10-10_bottle_10_n02823428_7316.png
bagnet9,1,1062,NaN,bicycle,bicycle,1-10-10,1062_eid_dnn_1-10-10_bicycle_10_n03792782_70404.png
bagnet9,1,1063,NaN,dog,bicycle,8-10-10,1063_eid_dnn_8-10-10_bicycle_10_n02835271_1016.png
bagnet9,1,1064,NaN,cat,airplane,32-10-10,1064_eid_dnn_32-10-10_airplane_10_n02690373_5055.png
bagnet9,1,1065,NaN,cat,oven,16-10-10,1065_eid_dnn_16-10-10_oven_10_n04111531_20875.png
bagnet9,1,1066,NaN,cat,knife,128-10-10,1066_eid_dnn_128-10-10_knife_10_n03041632_22734.png
bagnet9,1,1067,NaN,cat,knife,64-10-10,1067_eid_dnn_64-10-10_knife_10_n03041632_12537.png
bagnet9,1,1068,NaN,chair,oven,1-10-10,1068_eid_dnn_1-10-10_oven_10_n04111531_12080.png
bagnet9,1,1069,NaN,cat,car,128-10-10,1069_eid_dnn_128-10-10_car_10_n04285008_3150.png
bagnet9,1,1070,NaN,cat,truck,64-10-10,1070_eid_dnn_64-10-10_truck_10_n04467665_19131.png
bagnet9,1,1071,NaN,keyboard,car,4-10-10,1071_eid_dnn_4-10-10_car_10_n02814533_4087.png
bagnet9,1,1072,NaN,elephant,truck,32-10-10,1072_eid_dnn_32-10-10_truck_10_n03417042_27326.png
bagnet9,1,1073,NaN,keyboard,chair,1-10-10,1073_eid_dnn_1-10-10_chair_10_n03376595_3824.png
bagnet9,1,1074,NaN,cat,elephant,32-10-10,1074_eid_dnn_32-10-10_elephant_10_n02504013_464.png
bagnet9,1,1075,NaN,cat,boat,32-10-10,1075_eid_dnn_32-10-10_boat_10_n03662601_21699.png
bagnet9,1,1076,NaN,keyboard,bottle,4-10-10,1076_eid_dnn_4-10-10_bottle_10_n03983396_4503.png
bagnet9,1,1077,NaN,cat,elephant,128-10-10,1077_eid_dnn_128-10-10_elephant_10_n02504013_1698.png
bagnet9,1,1078,NaN,dog,keyboard,4-10-10,1078_eid_dnn_4-10-10_keyboard_10_n03085013_3812.png
bagnet9,1,1079,NaN,airplane,airplane,4-10-10,1079_eid_dnn_4-10-10_airplane_10_n02690373_10044.png
bagnet9,1,1080,NaN,dog,bottle,4-10-10,1080_eid_dnn_4-10-10_bottle_10_n04560804_8841.png
bagnet9,1,1081,NaN,cat,bird,128-10-10,1081_eid_dnn_128-10-10_bird_10_n01796340_18591.png
bagnet9,1,1082,NaN,clock,clock,2-10-10,1082_eid_dnn_2-10-10_clock_10_n04548280_3341.png
bagnet9,1,1083,NaN,knife,clock,8-10-10,1083_eid_dnn_8-10-10_clock_10_n02708093_2555.png
bagnet9,1,1084,NaN,cat,bird,16-10-10,1084_eid_dnn_16-10-10_bird_10_n02006656_5021.png
bagnet9,1,1085,NaN,clock,keyboard,1-10-10,1085_eid_dnn_1-10-10_keyboard_10_n03085013_22719.png
bagnet9,1,1086,NaN,clock,keyboard,1-10-10,1086_eid_dnn_1-10-10_keyboard_10_n03085013_22942.png
bagnet9,1,1087,NaN,elephant,oven,32-10-10,1087_eid_dnn_32-10-10_oven_10_n04111531_12830.png
bagnet9,1,1088,NaN,airplane,oven,4-10-10,1088_eid_dnn_4-10-10_oven_10_n04111531_3555.png
bagnet9,1,1089,NaN,cat,cat,8-10-10,1089_eid_dnn_8-10-10_cat_10_n02123159_4203.png
bagnet9,1,1090,NaN,dog,cat,2-10-10,1090_eid_dnn_2-10-10_cat_10_n02123597_7933.png
bagnet9,1,1091,NaN,bicycle,knife,1-10-10,1091_eid_dnn_1-10-10_knife_10_n03041632_32350.png
bagnet9,1,1092,NaN,bear,bear,1-10-10,1092_eid_dnn_1-10-10_bear_10_n02134418_16.png
bagnet9,1,1093,NaN,dog,oven,1-10-10,1093_eid_dnn_1-10-10_oven_10_n04111531_8398.png
bagnet9,1,1094,NaN,cat,elephant,64-10-10,1094_eid_dnn_64-10-10_elephant_10_n02504013_4485.png
bagnet9,1,1095,NaN,cat,bear,128-10-10,1095_eid_dnn_128-10-10_bear_10_n02132136_129.png
bagnet9,1,1096,NaN,dog,keyboard,16-10-10,1096_eid_dnn_16-10-10_keyboard_10_n04505470_4854.png
bagnet9,1,1097,NaN,bottle,truck,16-10-10,1097_eid_dnn_16-10-10_truck_10_n04467665_2144.png
bagnet9,1,1098,NaN,cat,knife,64-10-10,1098_eid_dnn_64-10-10_knife_10_n03041632_25603.png
bagnet9,1,1099,NaN,clock,bottle,2-10-10,1099_eid_dnn_2-10-10_bottle_10_n02823428_7495.png
bagnet9,1,1100,NaN,dog,chair,8-10-10,1100_eid_dnn_8-10-10_chair_10_n02791124_381.png
bagnet9,1,1101,NaN,clock,clock,4-10-10,1101_eid_dnn_4-10-10_clock_10_n02708093_31.png
bagnet9,1,1102,NaN,chair,chair,1-10-10,1102_eid_dnn_1-10-10_chair_10_n04099969_3611.png
bagnet9,1,1103,NaN,dog,dog,4-10-10,1103_eid_dnn_4-10-10_dog_10_n02100583_9672.png
bagnet9,1,1104,NaN,cat,truck,8-10-10,1104_eid_dnn_8-10-10_truck_10_n04467665_3710.png
bagnet9,1,1105,NaN,dog,bicycle,16-10-10,1105_eid_dnn_16-10-10_bicycle_10_n02835271_794.png
bagnet9,1,1106,NaN,cat,dog,16-10-10,1106_eid_dnn_16-10-10_dog_10_n02094433_1863.png
bagnet9,1,1107,NaN,dog,clock,16-10-10,1107_eid_dnn_16-10-10_clock_10_n04548280_8668.png
bagnet9,1,1108,NaN,elephant,car,32-10-10,1108_eid_dnn_32-10-10_car_10_n02814533_22824.png
bagnet9,1,1109,NaN,dog,chair,8-10-10,1109_eid_dnn_8-10-10_chair_10_n04429376_16923.png
bagnet9,1,1110,NaN,elephant,keyboard,64-10-10,1110_eid_dnn_64-10-10_keyboard_10_n04505470_7388.png
bagnet9,1,1111,NaN,cat,boat,128-10-10,1111_eid_dnn_128-10-10_boat_10_n03662601_33830.png
bagnet9,1,1112,NaN,cat,keyboard,16-10-10,1112_eid_dnn_16-10-10_keyboard_10_n03085013_10659.png
bagnet9,1,1113,NaN,elephant,airplane,32-10-10,1113_eid_dnn_32-10-10_airplane_10_n02690373_3492.png
bagnet9,1,1114,NaN,dog,elephant,8-10-10,1114_eid_dnn_8-10-10_elephant_10_n02504013_4957.png
bagnet9,1,1115,NaN,elephant,elephant,1-10-10,1115_eid_dnn_1-10-10_elephant_10_n02504458_3885.png
bagnet9,1,1116,NaN,elephant,elephant,1-10-10,1116_eid_dnn_1-10-10_elephant_10_n02504013_6211.png
bagnet9,1,1117,NaN,dog,boat,8-10-10,1117_eid_dnn_8-10-10_boat_10_n03662601_12670.png
bagnet9,1,1118,NaN,dog,bear,8-10-10,1118_eid_dnn_8-10-10_bear_10_n02134084_22349.png
bagnet9,1,1119,NaN,cat,bear,128-10-10,1119_eid_dnn_128-10-10_bear_10_n02133161_2164.png
bagnet9,1,1120,NaN,cat,airplane,128-10-10,1120_eid_dnn_128-10-10_airplane_10_n02690373_9309.png
bagnet9,1,1121,NaN,keyboard,cat,1-10-10,1121_eid_dnn_1-10-10_cat_10_n02123159_8088.png
bagnet9,1,1122,NaN,keyboard,car,2-10-10,1122_eid_dnn_2-10-10_car_10_n03100240_2512.png
bagnet9,1,1123,NaN,dog,knife,2-10-10,1123_eid_dnn_2-10-10_knife_10_n03041632_21818.png
