subj,session,trial,rt,object_response,category,condition,imagename
efficientnet_l2_noisy_student_475,1,1,NaN,oven,oven,1-10-10,0001_eid_dnn_1-10-10_oven_10_n04111531_17072.png
efficientnet_l2_noisy_student_475,1,2,NaN,knife,airplane,16-10-10,0002_eid_dnn_16-10-10_airplane_10_n02690373_4183.png
efficientnet_l2_noisy_student_475,1,3,NaN,knife,car,8-10-10,0003_eid_dnn_8-10-10_car_10_n03100240_1137.png
efficientnet_l2_noisy_student_475,1,4,NaN,clock,clock,2-10-10,0004_eid_dnn_2-10-10_clock_10_n04548280_7083.png
efficientnet_l2_noisy_student_475,1,5,NaN,bottle,bottle,2-10-10,0005_eid_dnn_2-10-10_bottle_10_n02823428_7810.png
efficientnet_l2_noisy_student_475,1,6,NaN,elephant,dog,128-10-10,0006_eid_dnn_128-10-10_dog_10_n02091244_8368.png
efficientnet_l2_noisy_student_475,1,7,NaN,bicycle,bicycle,1-10-10,0007_eid_dnn_1-10-10_bicycle_10_n02835271_2930.png
efficientnet_l2_noisy_student_475,1,8,NaN,knife,knife,4-10-10,0008_eid_dnn_4-10-10_knife_10_n03041632_52848.png
efficientnet_l2_noisy_student_475,1,9,NaN,bottle,bottle,2-10-10,0009_eid_dnn_2-10-10_bottle_10_n02823428_4097.png
efficientnet_l2_noisy_student_475,1,10,NaN,dog,dog,8-10-10,0010_eid_dnn_8-10-10_dog_10_n02105641_10264.png
efficientnet_l2_noisy_student_475,1,11,NaN,elephant,boat,8-10-10,0011_eid_dnn_8-10-10_boat_10_n03662601_10278.png
efficientnet_l2_noisy_student_475,1,12,NaN,clock,truck,32-10-10,0012_eid_dnn_32-10-10_truck_10_n04467665_76958.png
efficientnet_l2_noisy_student_475,1,13,NaN,elephant,dog,16-10-10,0013_eid_dnn_16-10-10_dog_10_n02088238_12552.png
efficientnet_l2_noisy_student_475,1,14,NaN,elephant,dog,8-10-10,0014_eid_dnn_8-10-10_dog_10_n02102040_994.png
efficientnet_l2_noisy_student_475,1,15,NaN,knife,bear,128-10-10,0015_eid_dnn_128-10-10_bear_10_n02133161_1944.png
efficientnet_l2_noisy_student_475,1,16,NaN,clock,car,16-10-10,0016_eid_dnn_16-10-10_car_10_n02814533_43040.png
efficientnet_l2_noisy_student_475,1,17,NaN,clock,oven,128-10-10,0017_eid_dnn_128-10-10_oven_10_n04111531_18592.png
efficientnet_l2_noisy_student_475,1,18,NaN,clock,chair,16-10-10,0018_eid_dnn_16-10-10_chair_10_n02791124_4294.png
efficientnet_l2_noisy_student_475,1,19,NaN,knife,knife,32-10-10,0019_eid_dnn_32-10-10_knife_10_n03041632_2630.png
efficientnet_l2_noisy_student_475,1,20,NaN,elephant,elephant,1-10-10,0020_eid_dnn_1-10-10_elephant_10_n02504458_723.png
efficientnet_l2_noisy_student_475,1,21,NaN,chair,chair,4-10-10,0021_eid_dnn_4-10-10_chair_10_n03376595_6107.png
efficientnet_l2_noisy_student_475,1,22,NaN,knife,clock,32-10-10,0022_eid_dnn_32-10-10_clock_10_n03196217_1337.png
efficientnet_l2_noisy_student_475,1,23,NaN,clock,boat,128-10-10,0023_eid_dnn_128-10-10_boat_10_n02951358_9550.png
efficientnet_l2_noisy_student_475,1,24,NaN,bottle,bird,128-10-10,0024_eid_dnn_128-10-10_bird_10_n01616318_2334.png
efficientnet_l2_noisy_student_475,1,25,NaN,clock,bottle,32-10-10,0025_eid_dnn_32-10-10_bottle_10_n03937543_1658.png
efficientnet_l2_noisy_student_475,1,26,NaN,elephant,elephant,2-10-10,0026_eid_dnn_2-10-10_elephant_10_n02504013_6731.png
efficientnet_l2_noisy_student_475,1,27,NaN,keyboard,keyboard,4-10-10,0027_eid_dnn_4-10-10_keyboard_10_n04505470_4447.png
efficientnet_l2_noisy_student_475,1,28,NaN,airplane,airplane,1-10-10,0028_eid_dnn_1-10-10_airplane_10_n02690373_4839.png
efficientnet_l2_noisy_student_475,1,29,NaN,clock,keyboard,64-10-10,0029_eid_dnn_64-10-10_keyboard_10_n04505470_1651.png
efficientnet_l2_noisy_student_475,1,30,NaN,knife,keyboard,32-10-10,0030_eid_dnn_32-10-10_keyboard_10_n03085013_20601.png
efficientnet_l2_noisy_student_475,1,31,NaN,clock,airplane,64-10-10,0031_eid_dnn_64-10-10_airplane_10_n02690373_2217.png
efficientnet_l2_noisy_student_475,1,32,NaN,bicycle,bicycle,4-10-10,0032_eid_dnn_4-10-10_bicycle_10_n03792782_25019.png
efficientnet_l2_noisy_student_475,1,33,NaN,cat,cat,8-10-10,0033_eid_dnn_8-10-10_cat_10_n02123597_13890.png
efficientnet_l2_noisy_student_475,1,34,NaN,boat,boat,1-10-10,0034_eid_dnn_1-10-10_boat_10_n04612504_214.png
efficientnet_l2_noisy_student_475,1,35,NaN,knife,chair,128-10-10,0035_eid_dnn_128-10-10_chair_10_n02791124_2555.png
efficientnet_l2_noisy_student_475,1,36,NaN,car,car,4-10-10,0036_eid_dnn_4-10-10_car_10_n04285008_2081.png
efficientnet_l2_noisy_student_475,1,37,NaN,clock,dog,32-10-10,0037_eid_dnn_32-10-10_dog_10_n02094114_8202.png
efficientnet_l2_noisy_student_475,1,38,NaN,airplane,chair,64-10-10,0038_eid_dnn_64-10-10_chair_10_n04099969_4541.png
efficientnet_l2_noisy_student_475,1,39,NaN,knife,boat,128-10-10,0039_eid_dnn_128-10-10_boat_10_n04612504_12864.png
efficientnet_l2_noisy_student_475,1,40,NaN,airplane,airplane,4-10-10,0040_eid_dnn_4-10-10_airplane_10_n02690373_18460.png
efficientnet_l2_noisy_student_475,1,41,NaN,knife,bottle,64-10-10,0041_eid_dnn_64-10-10_bottle_10_n03983396_8982.png
efficientnet_l2_noisy_student_475,1,42,NaN,boat,dog,16-10-10,0042_eid_dnn_16-10-10_dog_10_n02099601_10407.png
efficientnet_l2_noisy_student_475,1,43,NaN,knife,airplane,32-10-10,0043_eid_dnn_32-10-10_airplane_10_n02690373_5253.png
efficientnet_l2_noisy_student_475,1,44,NaN,elephant,elephant,2-10-10,0044_eid_dnn_2-10-10_elephant_10_n02504013_2832.png
efficientnet_l2_noisy_student_475,1,45,NaN,clock,clock,1-10-10,0045_eid_dnn_1-10-10_clock_10_n02708093_8002.png
efficientnet_l2_noisy_student_475,1,46,NaN,chair,chair,2-10-10,0046_eid_dnn_2-10-10_chair_10_n03376595_1766.png
efficientnet_l2_noisy_student_475,1,47,NaN,truck,truck,2-10-10,0047_eid_dnn_2-10-10_truck_10_n03417042_17616.png
efficientnet_l2_noisy_student_475,1,48,NaN,clock,bear,16-10-10,0048_eid_dnn_16-10-10_bear_10_n02134418_2804.png
efficientnet_l2_noisy_student_475,1,49,NaN,knife,car,64-10-10,0049_eid_dnn_64-10-10_car_10_n04285008_12101.png
efficientnet_l2_noisy_student_475,1,50,NaN,elephant,bear,16-10-10,0050_eid_dnn_16-10-10_bear_10_n02134418_3828.png
efficientnet_l2_noisy_student_475,1,51,NaN,bird,bird,2-10-10,0051_eid_dnn_2-10-10_bird_10_n01530575_5747.png
efficientnet_l2_noisy_student_475,1,52,NaN,knife,truck,128-10-10,0052_eid_dnn_128-10-10_truck_10_n03796401_3386.png
efficientnet_l2_noisy_student_475,1,53,NaN,keyboard,keyboard,16-10-10,0053_eid_dnn_16-10-10_keyboard_10_n04505470_3234.png
efficientnet_l2_noisy_student_475,1,54,NaN,truck,truck,1-10-10,0054_eid_dnn_1-10-10_truck_10_n04467665_72639.png
efficientnet_l2_noisy_student_475,1,55,NaN,knife,chair,32-10-10,0055_eid_dnn_32-10-10_chair_10_n04429376_27524.png
efficientnet_l2_noisy_student_475,1,56,NaN,knife,bottle,64-10-10,0056_eid_dnn_64-10-10_bottle_10_n04557648_11440.png
efficientnet_l2_noisy_student_475,1,57,NaN,knife,keyboard,32-10-10,0057_eid_dnn_32-10-10_keyboard_10_n03085013_20216.png
efficientnet_l2_noisy_student_475,1,58,NaN,elephant,boat,8-10-10,0058_eid_dnn_8-10-10_boat_10_n02951358_34653.png
efficientnet_l2_noisy_student_475,1,59,NaN,keyboard,keyboard,2-10-10,0059_eid_dnn_2-10-10_keyboard_10_n03085013_8932.png
efficientnet_l2_noisy_student_475,1,60,NaN,cat,cat,1-10-10,0060_eid_dnn_1-10-10_cat_10_n02125311_35338.png
efficientnet_l2_noisy_student_475,1,61,NaN,elephant,bicycle,16-10-10,0061_eid_dnn_16-10-10_bicycle_10_n03792782_5449.png
efficientnet_l2_noisy_student_475,1,62,NaN,bicycle,bicycle,4-10-10,0062_eid_dnn_4-10-10_bicycle_10_n03792782_9432.png
efficientnet_l2_noisy_student_475,1,63,NaN,bottle,bottle,1-10-10,0063_eid_dnn_1-10-10_bottle_10_n04591713_4291.png
efficientnet_l2_noisy_student_475,1,64,NaN,truck,truck,4-10-10,0064_eid_dnn_4-10-10_truck_10_n04467665_67057.png
efficientnet_l2_noisy_student_475,1,65,NaN,keyboard,keyboard,1-10-10,0065_eid_dnn_1-10-10_keyboard_10_n03085013_22790.png
efficientnet_l2_noisy_student_475,1,66,NaN,dog,dog,4-10-10,0066_eid_dnn_4-10-10_dog_10_n02086079_2896.png
efficientnet_l2_noisy_student_475,1,67,NaN,knife,knife,8-10-10,0067_eid_dnn_8-10-10_knife_10_n03041632_40508.png
efficientnet_l2_noisy_student_475,1,68,NaN,boat,boat,1-10-10,0068_eid_dnn_1-10-10_boat_10_n03344393_7942.png
efficientnet_l2_noisy_student_475,1,69,NaN,bear,bear,2-10-10,0069_eid_dnn_2-10-10_bear_10_n02134418_4352.png
efficientnet_l2_noisy_student_475,1,70,NaN,elephant,cat,16-10-10,0070_eid_dnn_16-10-10_cat_10_n02123045_5157.png
efficientnet_l2_noisy_student_475,1,71,NaN,clock,dog,16-10-10,0071_eid_dnn_16-10-10_dog_10_n02109047_14287.png
efficientnet_l2_noisy_student_475,1,72,NaN,truck,truck,2-10-10,0072_eid_dnn_2-10-10_truck_10_n03417042_14274.png
efficientnet_l2_noisy_student_475,1,73,NaN,airplane,airplane,2-10-10,0073_eid_dnn_2-10-10_airplane_10_n02690373_5885.png
efficientnet_l2_noisy_student_475,1,74,NaN,clock,cat,32-10-10,0074_eid_dnn_32-10-10_cat_10_n02123394_571.png
efficientnet_l2_noisy_student_475,1,75,NaN,clock,cat,32-10-10,0075_eid_dnn_32-10-10_cat_10_n02123045_10171.png
efficientnet_l2_noisy_student_475,1,76,NaN,bottle,bottle,8-10-10,0076_eid_dnn_8-10-10_bottle_10_n04560804_4909.png
efficientnet_l2_noisy_student_475,1,77,NaN,keyboard,keyboard,8-10-10,0077_eid_dnn_8-10-10_keyboard_10_n03085013_7971.png
efficientnet_l2_noisy_student_475,1,78,NaN,keyboard,keyboard,16-10-10,0078_eid_dnn_16-10-10_keyboard_10_n03085013_21397.png
efficientnet_l2_noisy_student_475,1,79,NaN,elephant,elephant,32-10-10,0079_eid_dnn_32-10-10_elephant_10_n02504458_4187.png
efficientnet_l2_noisy_student_475,1,80,NaN,bear,clock,8-10-10,0080_eid_dnn_8-10-10_clock_10_n03196217_6689.png
efficientnet_l2_noisy_student_475,1,81,NaN,knife,knife,4-10-10,0081_eid_dnn_4-10-10_knife_10_n03041632_26236.png
efficientnet_l2_noisy_student_475,1,82,NaN,knife,car,8-10-10,0082_eid_dnn_8-10-10_car_10_n03100240_1262.png
efficientnet_l2_noisy_student_475,1,83,NaN,clock,keyboard,64-10-10,0083_eid_dnn_64-10-10_keyboard_10_n04505470_5059.png
efficientnet_l2_noisy_student_475,1,84,NaN,bird,bird,1-10-10,0084_eid_dnn_1-10-10_bird_10_n01537544_26417.png
efficientnet_l2_noisy_student_475,1,85,NaN,clock,bird,32-10-10,0085_eid_dnn_32-10-10_bird_10_n02009912_5714.png
efficientnet_l2_noisy_student_475,1,86,NaN,clock,chair,128-10-10,0086_eid_dnn_128-10-10_chair_10_n03376595_5972.png
efficientnet_l2_noisy_student_475,1,87,NaN,chair,chair,2-10-10,0087_eid_dnn_2-10-10_chair_10_n04429376_805.png
efficientnet_l2_noisy_student_475,1,88,NaN,clock,bicycle,128-10-10,0088_eid_dnn_128-10-10_bicycle_10_n03792782_4083.png
efficientnet_l2_noisy_student_475,1,89,NaN,clock,clock,1-10-10,0089_eid_dnn_1-10-10_clock_10_n02708093_798.png
efficientnet_l2_noisy_student_475,1,90,NaN,bear,bear,1-10-10,0090_eid_dnn_1-10-10_bear_10_n02133161_1660.png
efficientnet_l2_noisy_student_475,1,91,NaN,airplane,car,8-10-10,0091_eid_dnn_8-10-10_car_10_n04285008_9464.png
efficientnet_l2_noisy_student_475,1,92,NaN,clock,oven,16-10-10,0092_eid_dnn_16-10-10_oven_10_n04111531_3314.png
efficientnet_l2_noisy_student_475,1,93,NaN,knife,cat,128-10-10,0093_eid_dnn_128-10-10_cat_10_n02123394_5753.png
efficientnet_l2_noisy_student_475,1,94,NaN,boat,boat,2-10-10,0094_eid_dnn_2-10-10_boat_10_n02951358_34042.png
efficientnet_l2_noisy_student_475,1,95,NaN,clock,truck,64-10-10,0095_eid_dnn_64-10-10_truck_10_n03417042_7588.png
efficientnet_l2_noisy_student_475,1,96,NaN,knife,truck,32-10-10,0096_eid_dnn_32-10-10_truck_10_n03417042_4200.png
efficientnet_l2_noisy_student_475,1,97,NaN,airplane,airplane,4-10-10,0097_eid_dnn_4-10-10_airplane_10_n02690373_4335.png
efficientnet_l2_noisy_student_475,1,98,NaN,knife,elephant,128-10-10,0098_eid_dnn_128-10-10_elephant_10_n02504458_6823.png
efficientnet_l2_noisy_student_475,1,99,NaN,boat,boat,4-10-10,0099_eid_dnn_4-10-10_boat_10_n03344393_4214.png
efficientnet_l2_noisy_student_475,1,100,NaN,keyboard,keyboard,4-10-10,0100_eid_dnn_4-10-10_keyboard_10_n03085013_22949.png
efficientnet_l2_noisy_student_475,1,101,NaN,clock,bear,64-10-10,0101_eid_dnn_64-10-10_bear_10_n02132136_31664.png
efficientnet_l2_noisy_student_475,1,102,NaN,knife,bottle,8-10-10,0102_eid_dnn_8-10-10_bottle_10_n03983396_1985.png
efficientnet_l2_noisy_student_475,1,103,NaN,airplane,airplane,2-10-10,0103_eid_dnn_2-10-10_airplane_10_n02690373_9266.png
efficientnet_l2_noisy_student_475,1,104,NaN,clock,bottle,128-10-10,0104_eid_dnn_128-10-10_bottle_10_n02823428_5961.png
efficientnet_l2_noisy_student_475,1,105,NaN,bottle,bottle,4-10-10,0105_eid_dnn_4-10-10_bottle_10_n04579145_1856.png
efficientnet_l2_noisy_student_475,1,106,NaN,clock,clock,64-10-10,0106_eid_dnn_64-10-10_clock_10_n02708093_7810.png
efficientnet_l2_noisy_student_475,1,107,NaN,dog,dog,1-10-10,0107_eid_dnn_1-10-10_dog_10_n02100735_4949.png
efficientnet_l2_noisy_student_475,1,108,NaN,clock,chair,32-10-10,0108_eid_dnn_32-10-10_chair_10_n03376595_7275.png
efficientnet_l2_noisy_student_475,1,109,NaN,bottle,bottle,2-10-10,0109_eid_dnn_2-10-10_bottle_10_n03983396_16741.png
efficientnet_l2_noisy_student_475,1,110,NaN,clock,boat,32-10-10,0110_eid_dnn_32-10-10_boat_10_n04612504_8719.png
efficientnet_l2_noisy_student_475,1,111,NaN,chair,chair,1-10-10,0111_eid_dnn_1-10-10_chair_10_n02791124_3570.png
efficientnet_l2_noisy_student_475,1,112,NaN,clock,bear,32-10-10,0112_eid_dnn_32-10-10_bear_10_n02132136_9557.png
efficientnet_l2_noisy_student_475,1,113,NaN,knife,bird,64-10-10,0113_eid_dnn_64-10-10_bird_10_n02002556_5730.png
efficientnet_l2_noisy_student_475,1,114,NaN,bicycle,oven,4-10-10,0114_eid_dnn_4-10-10_oven_10_n04111531_8959.png
efficientnet_l2_noisy_student_475,1,115,NaN,cat,cat,128-10-10,0115_eid_dnn_128-10-10_cat_10_n02123159_8101.png
efficientnet_l2_noisy_student_475,1,116,NaN,cat,cat,8-10-10,0116_eid_dnn_8-10-10_cat_10_n02123597_8890.png
efficientnet_l2_noisy_student_475,1,117,NaN,elephant,elephant,1-10-10,0117_eid_dnn_1-10-10_elephant_10_n02504458_220.png
efficientnet_l2_noisy_student_475,1,118,NaN,knife,bicycle,128-10-10,0118_eid_dnn_128-10-10_bicycle_10_n02835271_2651.png
efficientnet_l2_noisy_student_475,1,119,NaN,clock,keyboard,64-10-10,0119_eid_dnn_64-10-10_keyboard_10_n04505470_1581.png
efficientnet_l2_noisy_student_475,1,120,NaN,truck,truck,4-10-10,0120_eid_dnn_4-10-10_truck_10_n04467665_1719.png
efficientnet_l2_noisy_student_475,1,121,NaN,truck,truck,2-10-10,0121_eid_dnn_2-10-10_truck_10_n04467665_30756.png
efficientnet_l2_noisy_student_475,1,122,NaN,knife,oven,64-10-10,0122_eid_dnn_64-10-10_oven_10_n04111531_1818.png
efficientnet_l2_noisy_student_475,1,123,NaN,knife,elephant,64-10-10,0123_eid_dnn_64-10-10_elephant_10_n02504013_2974.png
efficientnet_l2_noisy_student_475,1,124,NaN,elephant,bicycle,128-10-10,0124_eid_dnn_128-10-10_bicycle_10_n03792782_7713.png
efficientnet_l2_noisy_student_475,1,125,NaN,clock,clock,16-10-10,0125_eid_dnn_16-10-10_clock_10_n04548280_9700.png
efficientnet_l2_noisy_student_475,1,126,NaN,clock,bottle,16-10-10,0126_eid_dnn_16-10-10_bottle_10_n04591713_1174.png
efficientnet_l2_noisy_student_475,1,127,NaN,clock,bear,64-10-10,0127_eid_dnn_64-10-10_bear_10_n02134418_1395.png
efficientnet_l2_noisy_student_475,1,128,NaN,knife,bottle,128-10-10,0128_eid_dnn_128-10-10_bottle_10_n04591713_36.png
efficientnet_l2_noisy_student_475,1,129,NaN,knife,knife,8-10-10,0129_eid_dnn_8-10-10_knife_10_n03041632_21034.png
efficientnet_l2_noisy_student_475,1,130,NaN,bicycle,bicycle,1-10-10,0130_eid_dnn_1-10-10_bicycle_10_n03792782_11115.png
efficientnet_l2_noisy_student_475,1,131,NaN,elephant,truck,16-10-10,0131_eid_dnn_16-10-10_truck_10_n03417042_5381.png
efficientnet_l2_noisy_student_475,1,132,NaN,clock,boat,64-10-10,0132_eid_dnn_64-10-10_boat_10_n04612504_15258.png
efficientnet_l2_noisy_student_475,1,133,NaN,boat,boat,2-10-10,0133_eid_dnn_2-10-10_boat_10_n03662601_11972.png
efficientnet_l2_noisy_student_475,1,134,NaN,elephant,dog,64-10-10,0134_eid_dnn_64-10-10_dog_10_n02092002_11459.png
efficientnet_l2_noisy_student_475,1,135,NaN,clock,clock,64-10-10,0135_eid_dnn_64-10-10_clock_10_n04548280_6605.png
efficientnet_l2_noisy_student_475,1,136,NaN,clock,boat,64-10-10,0136_eid_dnn_64-10-10_boat_10_n03662601_5600.png
efficientnet_l2_noisy_student_475,1,137,NaN,clock,bear,32-10-10,0137_eid_dnn_32-10-10_bear_10_n02134084_8153.png
efficientnet_l2_noisy_student_475,1,138,NaN,clock,cat,64-10-10,0138_eid_dnn_64-10-10_cat_10_n02124075_9225.png
efficientnet_l2_noisy_student_475,1,139,NaN,bicycle,bicycle,8-10-10,0139_eid_dnn_8-10-10_bicycle_10_n03792782_3591.png
efficientnet_l2_noisy_student_475,1,140,NaN,clock,dog,64-10-10,0140_eid_dnn_64-10-10_dog_10_n02107142_31661.png
efficientnet_l2_noisy_student_475,1,141,NaN,elephant,elephant,8-10-10,0141_eid_dnn_8-10-10_elephant_10_n02504458_651.png
efficientnet_l2_noisy_student_475,1,142,NaN,knife,dog,128-10-10,0142_eid_dnn_128-10-10_dog_10_n02110958_15217.png
efficientnet_l2_noisy_student_475,1,143,NaN,oven,oven,4-10-10,0143_eid_dnn_4-10-10_oven_10_n04111531_523.png
efficientnet_l2_noisy_student_475,1,144,NaN,car,car,4-10-10,0144_eid_dnn_4-10-10_car_10_n02814533_42884.png
efficientnet_l2_noisy_student_475,1,145,NaN,clock,car,64-10-10,0145_eid_dnn_64-10-10_car_10_n04285008_8017.png
efficientnet_l2_noisy_student_475,1,146,NaN,car,car,1-10-10,0146_eid_dnn_1-10-10_car_10_n03100240_16766.png
efficientnet_l2_noisy_student_475,1,147,NaN,elephant,elephant,8-10-10,0147_eid_dnn_8-10-10_elephant_10_n02504458_4593.png
efficientnet_l2_noisy_student_475,1,148,NaN,clock,chair,64-10-10,0148_eid_dnn_64-10-10_chair_10_n02791124_1358.png
efficientnet_l2_noisy_student_475,1,149,NaN,dog,dog,16-10-10,0149_eid_dnn_16-10-10_dog_10_n02095314_5363.png
efficientnet_l2_noisy_student_475,1,150,NaN,clock,clock,8-10-10,0150_eid_dnn_8-10-10_clock_10_n04548280_1413.png
efficientnet_l2_noisy_student_475,1,151,NaN,dog,dog,1-10-10,0151_eid_dnn_1-10-10_dog_10_n02105641_10948.png
efficientnet_l2_noisy_student_475,1,152,NaN,dog,dog,1-10-10,0152_eid_dnn_1-10-10_dog_10_n02113624_1691.png
efficientnet_l2_noisy_student_475,1,153,NaN,car,car,4-10-10,0153_eid_dnn_4-10-10_car_10_n03100240_2235.png
efficientnet_l2_noisy_student_475,1,154,NaN,chair,chair,2-10-10,0154_eid_dnn_2-10-10_chair_10_n04099969_56470.png
efficientnet_l2_noisy_student_475,1,155,NaN,oven,oven,2-10-10,0155_eid_dnn_2-10-10_oven_10_n04111531_5429.png
efficientnet_l2_noisy_student_475,1,156,NaN,clock,keyboard,64-10-10,0156_eid_dnn_64-10-10_keyboard_10_n03085013_19317.png
efficientnet_l2_noisy_student_475,1,157,NaN,clock,bird,64-10-10,0157_eid_dnn_64-10-10_bird_10_n01601694_19650.png
efficientnet_l2_noisy_student_475,1,158,NaN,clock,clock,128-10-10,0158_eid_dnn_128-10-10_clock_10_n03196217_11199.png
efficientnet_l2_noisy_student_475,1,159,NaN,clock,bottle,32-10-10,0159_eid_dnn_32-10-10_bottle_10_n03937543_2209.png
efficientnet_l2_noisy_student_475,1,160,NaN,knife,car,64-10-10,0160_eid_dnn_64-10-10_car_10_n03100240_16939.png
efficientnet_l2_noisy_student_475,1,161,NaN,keyboard,bottle,8-10-10,0161_eid_dnn_8-10-10_bottle_10_n04591713_2501.png
efficientnet_l2_noisy_student_475,1,162,NaN,airplane,airplane,16-10-10,0162_eid_dnn_16-10-10_airplane_10_n02690373_10395.png
efficientnet_l2_noisy_student_475,1,163,NaN,oven,oven,8-10-10,0163_eid_dnn_8-10-10_oven_10_n04111531_3286.png
efficientnet_l2_noisy_student_475,1,164,NaN,knife,boat,64-10-10,0164_eid_dnn_64-10-10_boat_10_n04273569_13401.png
efficientnet_l2_noisy_student_475,1,165,NaN,clock,elephant,64-10-10,0165_eid_dnn_64-10-10_elephant_10_n02504458_12776.png
efficientnet_l2_noisy_student_475,1,166,NaN,bird,bird,2-10-10,0166_eid_dnn_2-10-10_bird_10_n01828970_997.png
efficientnet_l2_noisy_student_475,1,167,NaN,bear,bear,8-10-10,0167_eid_dnn_8-10-10_bear_10_n02132136_10318.png
efficientnet_l2_noisy_student_475,1,168,NaN,clock,oven,32-10-10,0168_eid_dnn_32-10-10_oven_10_n04111531_7883.png
efficientnet_l2_noisy_student_475,1,169,NaN,knife,clock,128-10-10,0169_eid_dnn_128-10-10_clock_10_n02708093_725.png
efficientnet_l2_noisy_student_475,1,170,NaN,elephant,bottle,16-10-10,0170_eid_dnn_16-10-10_bottle_10_n04557648_2052.png
efficientnet_l2_noisy_student_475,1,171,NaN,knife,keyboard,32-10-10,0171_eid_dnn_32-10-10_keyboard_10_n04505470_5036.png
efficientnet_l2_noisy_student_475,1,172,NaN,elephant,elephant,8-10-10,0172_eid_dnn_8-10-10_elephant_10_n02504458_13352.png
efficientnet_l2_noisy_student_475,1,173,NaN,chair,chair,4-10-10,0173_eid_dnn_4-10-10_chair_10_n04429376_30620.png
efficientnet_l2_noisy_student_475,1,174,NaN,airplane,boat,16-10-10,0174_eid_dnn_16-10-10_boat_10_n03662601_2980.png
efficientnet_l2_noisy_student_475,1,175,NaN,airplane,boat,8-10-10,0175_eid_dnn_8-10-10_boat_10_n03662601_4734.png
efficientnet_l2_noisy_student_475,1,176,NaN,bear,bear,2-10-10,0176_eid_dnn_2-10-10_bear_10_n02134418_4754.png
efficientnet_l2_noisy_student_475,1,177,NaN,elephant,elephant,2-10-10,0177_eid_dnn_2-10-10_elephant_10_n02504013_8522.png
efficientnet_l2_noisy_student_475,1,178,NaN,knife,bottle,64-10-10,0178_eid_dnn_64-10-10_bottle_10_n03937543_4863.png
efficientnet_l2_noisy_student_475,1,179,NaN,clock,car,16-10-10,0179_eid_dnn_16-10-10_car_10_n04285008_10802.png
efficientnet_l2_noisy_student_475,1,180,NaN,clock,knife,64-10-10,0180_eid_dnn_64-10-10_knife_10_n03041632_6708.png
efficientnet_l2_noisy_student_475,1,181,NaN,dog,dog,1-10-10,0181_eid_dnn_1-10-10_dog_10_n02107142_61109.png
efficientnet_l2_noisy_student_475,1,182,NaN,clock,clock,2-10-10,0182_eid_dnn_2-10-10_clock_10_n03196217_8139.png
efficientnet_l2_noisy_student_475,1,183,NaN,elephant,elephant,1-10-10,0183_eid_dnn_1-10-10_elephant_10_n02504458_6611.png
efficientnet_l2_noisy_student_475,1,184,NaN,clock,truck,64-10-10,0184_eid_dnn_64-10-10_truck_10_n04467665_4401.png
efficientnet_l2_noisy_student_475,1,185,NaN,boat,boat,4-10-10,0185_eid_dnn_4-10-10_boat_10_n03344393_732.png
efficientnet_l2_noisy_student_475,1,186,NaN,knife,knife,4-10-10,0186_eid_dnn_4-10-10_knife_10_n03041632_41381.png
efficientnet_l2_noisy_student_475,1,187,NaN,elephant,oven,32-10-10,0187_eid_dnn_32-10-10_oven_10_n04111531_22715.png
efficientnet_l2_noisy_student_475,1,188,NaN,cat,cat,16-10-10,0188_eid_dnn_16-10-10_cat_10_n02123045_3568.png
efficientnet_l2_noisy_student_475,1,189,NaN,truck,truck,2-10-10,0189_eid_dnn_2-10-10_truck_10_n03796401_18976.png
efficientnet_l2_noisy_student_475,1,190,NaN,elephant,oven,8-10-10,0190_eid_dnn_8-10-10_oven_10_n04111531_15710.png
efficientnet_l2_noisy_student_475,1,191,NaN,knife,elephant,32-10-10,0191_eid_dnn_32-10-10_elephant_10_n02504013_7232.png
efficientnet_l2_noisy_student_475,1,192,NaN,clock,clock,64-10-10,0192_eid_dnn_64-10-10_clock_10_n02708093_5126.png
efficientnet_l2_noisy_student_475,1,193,NaN,knife,cat,32-10-10,0193_eid_dnn_32-10-10_cat_10_n02123159_1598.png
efficientnet_l2_noisy_student_475,1,194,NaN,car,car,1-10-10,0194_eid_dnn_1-10-10_car_10_n04285008_1661.png
efficientnet_l2_noisy_student_475,1,195,NaN,clock,clock,2-10-10,0195_eid_dnn_2-10-10_clock_10_n02708093_5551.png
efficientnet_l2_noisy_student_475,1,196,NaN,bear,airplane,128-10-10,0196_eid_dnn_128-10-10_airplane_10_n02690373_693.png
efficientnet_l2_noisy_student_475,1,197,NaN,elephant,elephant,2-10-10,0197_eid_dnn_2-10-10_elephant_10_n02504013_3409.png
efficientnet_l2_noisy_student_475,1,198,NaN,clock,dog,64-10-10,0198_eid_dnn_64-10-10_dog_10_n02113712_8182.png
efficientnet_l2_noisy_student_475,1,199,NaN,bottle,bottle,1-10-10,0199_eid_dnn_1-10-10_bottle_10_n03983396_8322.png
efficientnet_l2_noisy_student_475,1,200,NaN,clock,keyboard,64-10-10,0200_eid_dnn_64-10-10_keyboard_10_n04505470_1040.png
efficientnet_l2_noisy_student_475,1,201,NaN,knife,oven,32-10-10,0201_eid_dnn_32-10-10_oven_10_n04111531_11230.png
efficientnet_l2_noisy_student_475,1,202,NaN,cat,cat,1-10-10,0202_eid_dnn_1-10-10_cat_10_n02123394_6269.png
efficientnet_l2_noisy_student_475,1,203,NaN,elephant,elephant,2-10-10,0203_eid_dnn_2-10-10_elephant_10_n02504013_2075.png
efficientnet_l2_noisy_student_475,1,204,NaN,bear,bear,1-10-10,0204_eid_dnn_1-10-10_bear_10_n02133161_3795.png
efficientnet_l2_noisy_student_475,1,205,NaN,oven,oven,2-10-10,0205_eid_dnn_2-10-10_oven_10_n04111531_4322.png
efficientnet_l2_noisy_student_475,1,206,NaN,bottle,bottle,4-10-10,0206_eid_dnn_4-10-10_bottle_10_n03937543_5799.png
efficientnet_l2_noisy_student_475,1,207,NaN,keyboard,keyboard,8-10-10,0207_eid_dnn_8-10-10_keyboard_10_n04505470_4414.png
efficientnet_l2_noisy_student_475,1,208,NaN,dog,dog,4-10-10,0208_eid_dnn_4-10-10_dog_10_n02091032_8315.png
efficientnet_l2_noisy_student_475,1,209,NaN,knife,knife,2-10-10,0209_eid_dnn_2-10-10_knife_10_n03041632_39952.png
efficientnet_l2_noisy_student_475,1,210,NaN,chair,chair,8-10-10,0210_eid_dnn_8-10-10_chair_10_n02791124_634.png
efficientnet_l2_noisy_student_475,1,211,NaN,airplane,boat,32-10-10,0211_eid_dnn_32-10-10_boat_10_n03344393_3355.png
efficientnet_l2_noisy_student_475,1,212,NaN,clock,dog,32-10-10,0212_eid_dnn_32-10-10_dog_10_n02102040_7188.png
efficientnet_l2_noisy_student_475,1,213,NaN,chair,chair,2-10-10,0213_eid_dnn_2-10-10_chair_10_n02791124_8711.png
efficientnet_l2_noisy_student_475,1,214,NaN,boat,bear,64-10-10,0214_eid_dnn_64-10-10_bear_10_n02132136_6002.png
efficientnet_l2_noisy_student_475,1,215,NaN,boat,boat,4-10-10,0215_eid_dnn_4-10-10_boat_10_n02951358_30184.png
efficientnet_l2_noisy_student_475,1,216,NaN,clock,bottle,128-10-10,0216_eid_dnn_128-10-10_bottle_10_n02823428_3414.png
efficientnet_l2_noisy_student_475,1,217,NaN,truck,truck,4-10-10,0217_eid_dnn_4-10-10_truck_10_n04467665_13231.png
efficientnet_l2_noisy_student_475,1,218,NaN,chair,chair,4-10-10,0218_eid_dnn_4-10-10_chair_10_n04099969_8063.png
efficientnet_l2_noisy_student_475,1,219,NaN,bird,bird,4-10-10,0219_eid_dnn_4-10-10_bird_10_n01534433_10234.png
efficientnet_l2_noisy_student_475,1,220,NaN,elephant,elephant,4-10-10,0220_eid_dnn_4-10-10_elephant_10_n02504013_12533.png
efficientnet_l2_noisy_student_475,1,221,NaN,airplane,knife,16-10-10,0221_eid_dnn_16-10-10_knife_10_n03041632_18995.png
efficientnet_l2_noisy_student_475,1,222,NaN,clock,chair,32-10-10,0222_eid_dnn_32-10-10_chair_10_n04429376_7123.png
efficientnet_l2_noisy_student_475,1,223,NaN,clock,clock,64-10-10,0223_eid_dnn_64-10-10_clock_10_n03196217_9065.png
efficientnet_l2_noisy_student_475,1,224,NaN,dog,dog,4-10-10,0224_eid_dnn_4-10-10_dog_10_n02086079_4143.png
efficientnet_l2_noisy_student_475,1,225,NaN,bear,bear,4-10-10,0225_eid_dnn_4-10-10_bear_10_n02132136_20162.png
efficientnet_l2_noisy_student_475,1,226,NaN,bottle,bottle,1-10-10,0226_eid_dnn_1-10-10_bottle_10_n03983396_4165.png
efficientnet_l2_noisy_student_475,1,227,NaN,bird,bird,4-10-10,0227_eid_dnn_4-10-10_bird_10_n01824575_4470.png
efficientnet_l2_noisy_student_475,1,228,NaN,elephant,oven,64-10-10,0228_eid_dnn_64-10-10_oven_10_n04111531_9695.png
efficientnet_l2_noisy_student_475,1,229,NaN,clock,bottle,64-10-10,0229_eid_dnn_64-10-10_bottle_10_n02823428_23181.png
efficientnet_l2_noisy_student_475,1,230,NaN,bicycle,bicycle,2-10-10,0230_eid_dnn_2-10-10_bicycle_10_n02835271_13674.png
efficientnet_l2_noisy_student_475,1,231,NaN,chair,chair,2-10-10,0231_eid_dnn_2-10-10_chair_10_n04429376_55747.png
efficientnet_l2_noisy_student_475,1,232,NaN,elephant,boat,32-10-10,0232_eid_dnn_32-10-10_boat_10_n02951358_8346.png
efficientnet_l2_noisy_student_475,1,233,NaN,elephant,elephant,16-10-10,0233_eid_dnn_16-10-10_elephant_10_n02504013_1088.png
efficientnet_l2_noisy_student_475,1,234,NaN,car,car,8-10-10,0234_eid_dnn_8-10-10_car_10_n03100240_11191.png
efficientnet_l2_noisy_student_475,1,235,NaN,chair,chair,8-10-10,0235_eid_dnn_8-10-10_chair_10_n04099969_19966.png
efficientnet_l2_noisy_student_475,1,236,NaN,clock,bicycle,32-10-10,0236_eid_dnn_32-10-10_bicycle_10_n03792782_15016.png
efficientnet_l2_noisy_student_475,1,237,NaN,elephant,boat,128-10-10,0237_eid_dnn_128-10-10_boat_10_n02951358_17867.png
efficientnet_l2_noisy_student_475,1,238,NaN,cat,cat,2-10-10,0238_eid_dnn_2-10-10_cat_10_n02123045_2364.png
efficientnet_l2_noisy_student_475,1,239,NaN,bear,bear,2-10-10,0239_eid_dnn_2-10-10_bear_10_n02132136_9433.png
efficientnet_l2_noisy_student_475,1,240,NaN,clock,clock,32-10-10,0240_eid_dnn_32-10-10_clock_10_n03196217_3167.png
efficientnet_l2_noisy_student_475,1,241,NaN,clock,clock,32-10-10,0241_eid_dnn_32-10-10_clock_10_n03196217_3129.png
efficientnet_l2_noisy_student_475,1,242,NaN,knife,keyboard,128-10-10,0242_eid_dnn_128-10-10_keyboard_10_n03085013_6067.png
efficientnet_l2_noisy_student_475,1,243,NaN,keyboard,keyboard,2-10-10,0243_eid_dnn_2-10-10_keyboard_10_n03085013_24648.png
efficientnet_l2_noisy_student_475,1,244,NaN,knife,oven,32-10-10,0244_eid_dnn_32-10-10_oven_10_n04111531_6695.png
efficientnet_l2_noisy_student_475,1,245,NaN,dog,dog,4-10-10,0245_eid_dnn_4-10-10_dog_10_n02111500_4875.png
efficientnet_l2_noisy_student_475,1,246,NaN,elephant,oven,32-10-10,0246_eid_dnn_32-10-10_oven_10_n04111531_13018.png
efficientnet_l2_noisy_student_475,1,247,NaN,clock,keyboard,128-10-10,0247_eid_dnn_128-10-10_keyboard_10_n03085013_23030.png
efficientnet_l2_noisy_student_475,1,248,NaN,dog,cat,8-10-10,0248_eid_dnn_8-10-10_cat_10_n02123045_8409.png
efficientnet_l2_noisy_student_475,1,249,NaN,bicycle,bicycle,4-10-10,0249_eid_dnn_4-10-10_bicycle_10_n03792782_37777.png
efficientnet_l2_noisy_student_475,1,250,NaN,knife,airplane,64-10-10,0250_eid_dnn_64-10-10_airplane_10_n02690373_614.png
efficientnet_l2_noisy_student_475,1,251,NaN,knife,keyboard,128-10-10,0251_eid_dnn_128-10-10_keyboard_10_n03085013_19775.png
efficientnet_l2_noisy_student_475,1,252,NaN,bear,bear,8-10-10,0252_eid_dnn_8-10-10_bear_10_n02133161_1244.png
efficientnet_l2_noisy_student_475,1,253,NaN,keyboard,keyboard,2-10-10,0253_eid_dnn_2-10-10_keyboard_10_n04505470_4368.png
efficientnet_l2_noisy_student_475,1,254,NaN,oven,oven,2-10-10,0254_eid_dnn_2-10-10_oven_10_n04111531_7728.png
efficientnet_l2_noisy_student_475,1,255,NaN,keyboard,clock,8-10-10,0255_eid_dnn_8-10-10_clock_10_n04548280_1.png
efficientnet_l2_noisy_student_475,1,256,NaN,clock,cat,64-10-10,0256_eid_dnn_64-10-10_cat_10_n02123394_3062.png
efficientnet_l2_noisy_student_475,1,257,NaN,elephant,elephant,2-10-10,0257_eid_dnn_2-10-10_elephant_10_n02504013_466.png
efficientnet_l2_noisy_student_475,1,258,NaN,elephant,elephant,1-10-10,0258_eid_dnn_1-10-10_elephant_10_n02504013_6275.png
efficientnet_l2_noisy_student_475,1,259,NaN,bird,bird,4-10-10,0259_eid_dnn_4-10-10_bird_10_n01560419_5466.png
efficientnet_l2_noisy_student_475,1,260,NaN,clock,truck,8-10-10,0260_eid_dnn_8-10-10_truck_10_n03796401_5227.png
efficientnet_l2_noisy_student_475,1,261,NaN,chair,chair,2-10-10,0261_eid_dnn_2-10-10_chair_10_n04099969_25124.png
efficientnet_l2_noisy_student_475,1,262,NaN,elephant,elephant,64-10-10,0262_eid_dnn_64-10-10_elephant_10_n02504013_7209.png
efficientnet_l2_noisy_student_475,1,263,NaN,cat,cat,1-10-10,0263_eid_dnn_1-10-10_cat_10_n02123597_4756.png
efficientnet_l2_noisy_student_475,1,264,NaN,clock,bicycle,16-10-10,0264_eid_dnn_16-10-10_bicycle_10_n02835271_4654.png
efficientnet_l2_noisy_student_475,1,265,NaN,keyboard,keyboard,1-10-10,0265_eid_dnn_1-10-10_keyboard_10_n04505470_2389.png
efficientnet_l2_noisy_student_475,1,266,NaN,knife,knife,128-10-10,0266_eid_dnn_128-10-10_knife_10_n03041632_379.png
efficientnet_l2_noisy_student_475,1,267,NaN,airplane,clock,8-10-10,0267_eid_dnn_8-10-10_clock_10_n02708093_899.png
efficientnet_l2_noisy_student_475,1,268,NaN,clock,truck,128-10-10,0268_eid_dnn_128-10-10_truck_10_n03417042_10154.png
efficientnet_l2_noisy_student_475,1,269,NaN,bottle,bottle,2-10-10,0269_eid_dnn_2-10-10_bottle_10_n04579145_3415.png
efficientnet_l2_noisy_student_475,1,270,NaN,clock,chair,16-10-10,0270_eid_dnn_16-10-10_chair_10_n02791124_146.png
efficientnet_l2_noisy_student_475,1,271,NaN,clock,elephant,128-10-10,0271_eid_dnn_128-10-10_elephant_10_n02504458_2835.png
efficientnet_l2_noisy_student_475,1,272,NaN,bicycle,bicycle,1-10-10,0272_eid_dnn_1-10-10_bicycle_10_n03792782_13835.png
efficientnet_l2_noisy_student_475,1,273,NaN,elephant,bicycle,32-10-10,0273_eid_dnn_32-10-10_bicycle_10_n02835271_12926.png
efficientnet_l2_noisy_student_475,1,274,NaN,dog,dog,2-10-10,0274_eid_dnn_2-10-10_dog_10_n02110185_11605.png
efficientnet_l2_noisy_student_475,1,275,NaN,clock,elephant,128-10-10,0275_eid_dnn_128-10-10_elephant_10_n02504458_3091.png
efficientnet_l2_noisy_student_475,1,276,NaN,clock,chair,128-10-10,0276_eid_dnn_128-10-10_chair_10_n04099969_5233.png
efficientnet_l2_noisy_student_475,1,277,NaN,dog,dog,2-10-10,0277_eid_dnn_2-10-10_dog_10_n02097209_7628.png
efficientnet_l2_noisy_student_475,1,278,NaN,cat,cat,8-10-10,0278_eid_dnn_8-10-10_cat_10_n02123597_10941.png
efficientnet_l2_noisy_student_475,1,279,NaN,clock,clock,16-10-10,0279_eid_dnn_16-10-10_clock_10_n02708093_3006.png
efficientnet_l2_noisy_student_475,1,280,NaN,truck,truck,1-10-10,0280_eid_dnn_1-10-10_truck_10_n03796401_26620.png
efficientnet_l2_noisy_student_475,1,281,NaN,knife,bear,128-10-10,0281_eid_dnn_128-10-10_bear_10_n02134418_12733.png
efficientnet_l2_noisy_student_475,1,282,NaN,knife,knife,2-10-10,0282_eid_dnn_2-10-10_knife_10_n03041632_4806.png
efficientnet_l2_noisy_student_475,1,283,NaN,oven,oven,4-10-10,0283_eid_dnn_4-10-10_oven_10_n04111531_17922.png
efficientnet_l2_noisy_student_475,1,284,NaN,bottle,bottle,1-10-10,0284_eid_dnn_1-10-10_bottle_10_n04579145_6818.png
efficientnet_l2_noisy_student_475,1,285,NaN,keyboard,keyboard,4-10-10,0285_eid_dnn_4-10-10_keyboard_10_n04505470_494.png
efficientnet_l2_noisy_student_475,1,286,NaN,cat,cat,8-10-10,0286_eid_dnn_8-10-10_cat_10_n02123045_10834.png
efficientnet_l2_noisy_student_475,1,287,NaN,dog,cat,128-10-10,0287_eid_dnn_128-10-10_cat_10_n02123394_176.png
efficientnet_l2_noisy_student_475,1,288,NaN,clock,chair,128-10-10,0288_eid_dnn_128-10-10_chair_10_n03376595_2891.png
efficientnet_l2_noisy_student_475,1,289,NaN,dog,dog,8-10-10,0289_eid_dnn_8-10-10_dog_10_n02093256_5647.png
efficientnet_l2_noisy_student_475,1,290,NaN,knife,knife,64-10-10,0290_eid_dnn_64-10-10_knife_10_n03041632_33326.png
efficientnet_l2_noisy_student_475,1,291,NaN,knife,airplane,8-10-10,0291_eid_dnn_8-10-10_airplane_10_n02690373_2856.png
efficientnet_l2_noisy_student_475,1,292,NaN,clock,bicycle,128-10-10,0292_eid_dnn_128-10-10_bicycle_10_n03792782_9651.png
efficientnet_l2_noisy_student_475,1,293,NaN,bicycle,bicycle,2-10-10,0293_eid_dnn_2-10-10_bicycle_10_n02835271_7438.png
efficientnet_l2_noisy_student_475,1,294,NaN,knife,bicycle,128-10-10,0294_eid_dnn_128-10-10_bicycle_10_n02835271_26639.png
efficientnet_l2_noisy_student_475,1,295,NaN,keyboard,keyboard,8-10-10,0295_eid_dnn_8-10-10_keyboard_10_n04505470_4458.png
efficientnet_l2_noisy_student_475,1,296,NaN,clock,dog,64-10-10,0296_eid_dnn_64-10-10_dog_10_n02106662_24847.png
efficientnet_l2_noisy_student_475,1,297,NaN,clock,chair,32-10-10,0297_eid_dnn_32-10-10_chair_10_n03376595_8995.png
efficientnet_l2_noisy_student_475,1,298,NaN,clock,bicycle,64-10-10,0298_eid_dnn_64-10-10_bicycle_10_n03792782_6030.png
efficientnet_l2_noisy_student_475,1,299,NaN,elephant,elephant,4-10-10,0299_eid_dnn_4-10-10_elephant_10_n02504458_7258.png
efficientnet_l2_noisy_student_475,1,300,NaN,clock,boat,128-10-10,0300_eid_dnn_128-10-10_boat_10_n03662601_23903.png
efficientnet_l2_noisy_student_475,1,301,NaN,elephant,bird,16-10-10,0301_eid_dnn_16-10-10_bird_10_n02002724_578.png
efficientnet_l2_noisy_student_475,1,302,NaN,clock,chair,64-10-10,0302_eid_dnn_64-10-10_chair_10_n03376595_2393.png
efficientnet_l2_noisy_student_475,1,303,NaN,knife,boat,16-10-10,0303_eid_dnn_16-10-10_boat_10_n03662601_5118.png
efficientnet_l2_noisy_student_475,1,304,NaN,chair,chair,8-10-10,0304_eid_dnn_8-10-10_chair_10_n04429376_21845.png
efficientnet_l2_noisy_student_475,1,305,NaN,airplane,dog,8-10-10,0305_eid_dnn_8-10-10_dog_10_n02102040_2216.png
efficientnet_l2_noisy_student_475,1,306,NaN,knife,airplane,8-10-10,0306_eid_dnn_8-10-10_airplane_10_n02690373_3032.png
efficientnet_l2_noisy_student_475,1,307,NaN,dog,dog,8-10-10,0307_eid_dnn_8-10-10_dog_10_n02100735_2228.png
efficientnet_l2_noisy_student_475,1,308,NaN,bird,bird,8-10-10,0308_eid_dnn_8-10-10_bird_10_n01532829_13864.png
efficientnet_l2_noisy_student_475,1,309,NaN,clock,bird,64-10-10,0309_eid_dnn_64-10-10_bird_10_n01601694_13787.png
efficientnet_l2_noisy_student_475,1,310,NaN,clock,bear,64-10-10,0310_eid_dnn_64-10-10_bear_10_n02134084_22150.png
efficientnet_l2_noisy_student_475,1,311,NaN,airplane,knife,16-10-10,0311_eid_dnn_16-10-10_knife_10_n03041632_29427.png
efficientnet_l2_noisy_student_475,1,312,NaN,chair,chair,4-10-10,0312_eid_dnn_4-10-10_chair_10_n02791124_2804.png
efficientnet_l2_noisy_student_475,1,313,NaN,bottle,bottle,4-10-10,0313_eid_dnn_4-10-10_bottle_10_n04591713_5046.png
efficientnet_l2_noisy_student_475,1,314,NaN,clock,bicycle,128-10-10,0314_eid_dnn_128-10-10_bicycle_10_n03792782_4210.png
efficientnet_l2_noisy_student_475,1,315,NaN,clock,cat,128-10-10,0315_eid_dnn_128-10-10_cat_10_n02123159_1596.png
efficientnet_l2_noisy_student_475,1,316,NaN,car,car,2-10-10,0316_eid_dnn_2-10-10_car_10_n03100240_17588.png
efficientnet_l2_noisy_student_475,1,317,NaN,keyboard,keyboard,4-10-10,0317_eid_dnn_4-10-10_keyboard_10_n03085013_23295.png
efficientnet_l2_noisy_student_475,1,318,NaN,knife,oven,32-10-10,0318_eid_dnn_32-10-10_oven_10_n04111531_4879.png
efficientnet_l2_noisy_student_475,1,319,NaN,clock,keyboard,32-10-10,0319_eid_dnn_32-10-10_keyboard_10_n04505470_4569.png
efficientnet_l2_noisy_student_475,1,320,NaN,truck,truck,8-10-10,0320_eid_dnn_8-10-10_truck_10_n04467665_24190.png
efficientnet_l2_noisy_student_475,1,321,NaN,cat,cat,4-10-10,0321_eid_dnn_4-10-10_cat_10_n02124075_15405.png
efficientnet_l2_noisy_student_475,1,322,NaN,knife,knife,8-10-10,0322_eid_dnn_8-10-10_knife_10_n03041632_24817.png
efficientnet_l2_noisy_student_475,1,323,NaN,knife,elephant,64-10-10,0323_eid_dnn_64-10-10_elephant_10_n02504013_5505.png
efficientnet_l2_noisy_student_475,1,324,NaN,airplane,airplane,8-10-10,0324_eid_dnn_8-10-10_airplane_10_n02690373_8846.png
efficientnet_l2_noisy_student_475,1,325,NaN,elephant,truck,32-10-10,0325_eid_dnn_32-10-10_truck_10_n04467665_50806.png
efficientnet_l2_noisy_student_475,1,326,NaN,elephant,elephant,4-10-10,0326_eid_dnn_4-10-10_elephant_10_n02504458_5539.png
efficientnet_l2_noisy_student_475,1,327,NaN,boat,boat,1-10-10,0327_eid_dnn_1-10-10_boat_10_n03344393_1178.png
efficientnet_l2_noisy_student_475,1,328,NaN,truck,truck,4-10-10,0328_eid_dnn_4-10-10_truck_10_n04467665_10025.png
efficientnet_l2_noisy_student_475,1,329,NaN,clock,clock,4-10-10,0329_eid_dnn_4-10-10_clock_10_n02708093_2869.png
efficientnet_l2_noisy_student_475,1,330,NaN,clock,bottle,8-10-10,0330_eid_dnn_8-10-10_bottle_10_n03983396_4879.png
efficientnet_l2_noisy_student_475,1,331,NaN,knife,keyboard,128-10-10,0331_eid_dnn_128-10-10_keyboard_10_n03085013_10367.png
efficientnet_l2_noisy_student_475,1,332,NaN,knife,bird,64-10-10,0332_eid_dnn_64-10-10_bird_10_n01860187_21300.png
efficientnet_l2_noisy_student_475,1,333,NaN,clock,knife,32-10-10,0333_eid_dnn_32-10-10_knife_10_n03041632_5302.png
efficientnet_l2_noisy_student_475,1,334,NaN,bear,bear,4-10-10,0334_eid_dnn_4-10-10_bear_10_n02134084_5274.png
efficientnet_l2_noisy_student_475,1,335,NaN,knife,knife,4-10-10,0335_eid_dnn_4-10-10_knife_10_n03041632_48816.png
efficientnet_l2_noisy_student_475,1,336,NaN,elephant,elephant,16-10-10,0336_eid_dnn_16-10-10_elephant_10_n02504013_3295.png
efficientnet_l2_noisy_student_475,1,337,NaN,clock,truck,128-10-10,0337_eid_dnn_128-10-10_truck_10_n03417042_2478.png
efficientnet_l2_noisy_student_475,1,338,NaN,elephant,oven,32-10-10,0338_eid_dnn_32-10-10_oven_10_n04111531_5350.png
efficientnet_l2_noisy_student_475,1,339,NaN,knife,airplane,8-10-10,0339_eid_dnn_8-10-10_airplane_10_n02690373_1663.png
efficientnet_l2_noisy_student_475,1,340,NaN,boat,boat,4-10-10,0340_eid_dnn_4-10-10_boat_10_n03344393_1422.png
efficientnet_l2_noisy_student_475,1,341,NaN,clock,cat,32-10-10,0341_eid_dnn_32-10-10_cat_10_n02123159_3312.png
efficientnet_l2_noisy_student_475,1,342,NaN,clock,chair,64-10-10,0342_eid_dnn_64-10-10_chair_10_n03376595_6171.png
efficientnet_l2_noisy_student_475,1,343,NaN,bottle,bottle,8-10-10,0343_eid_dnn_8-10-10_bottle_10_n04591713_1616.png
efficientnet_l2_noisy_student_475,1,344,NaN,knife,bear,128-10-10,0344_eid_dnn_128-10-10_bear_10_n02133161_1197.png
efficientnet_l2_noisy_student_475,1,345,NaN,truck,truck,4-10-10,0345_eid_dnn_4-10-10_truck_10_n04467665_663.png
efficientnet_l2_noisy_student_475,1,346,NaN,bear,bear,4-10-10,0346_eid_dnn_4-10-10_bear_10_n02132136_2771.png
efficientnet_l2_noisy_student_475,1,347,NaN,boat,cat,16-10-10,0347_eid_dnn_16-10-10_cat_10_n02123394_12.png
efficientnet_l2_noisy_student_475,1,348,NaN,car,car,8-10-10,0348_eid_dnn_8-10-10_car_10_n04285008_1795.png
efficientnet_l2_noisy_student_475,1,349,NaN,boat,boat,4-10-10,0349_eid_dnn_4-10-10_boat_10_n04273569_1023.png
efficientnet_l2_noisy_student_475,1,350,NaN,boat,boat,1-10-10,0350_eid_dnn_1-10-10_boat_10_n03662601_21775.png
efficientnet_l2_noisy_student_475,1,351,NaN,clock,clock,1-10-10,0351_eid_dnn_1-10-10_clock_10_n03196217_71.png
efficientnet_l2_noisy_student_475,1,352,NaN,keyboard,keyboard,4-10-10,0352_eid_dnn_4-10-10_keyboard_10_n04505470_3122.png
efficientnet_l2_noisy_student_475,1,353,NaN,elephant,dog,32-10-10,0353_eid_dnn_32-10-10_dog_10_n02099849_4640.png
efficientnet_l2_noisy_student_475,1,354,NaN,clock,bottle,64-10-10,0354_eid_dnn_64-10-10_bottle_10_n02823428_6418.png
efficientnet_l2_noisy_student_475,1,355,NaN,clock,car,8-10-10,0355_eid_dnn_8-10-10_car_10_n04285008_11704.png
efficientnet_l2_noisy_student_475,1,356,NaN,clock,clock,32-10-10,0356_eid_dnn_32-10-10_clock_10_n02708093_3544.png
efficientnet_l2_noisy_student_475,1,357,NaN,clock,clock,8-10-10,0357_eid_dnn_8-10-10_clock_10_n04548280_4599.png
efficientnet_l2_noisy_student_475,1,358,NaN,knife,car,128-10-10,0358_eid_dnn_128-10-10_car_10_n03100240_6259.png
efficientnet_l2_noisy_student_475,1,359,NaN,airplane,boat,8-10-10,0359_eid_dnn_8-10-10_boat_10_n04273569_3401.png
efficientnet_l2_noisy_student_475,1,360,NaN,knife,truck,64-10-10,0360_eid_dnn_64-10-10_truck_10_n04467665_13898.png
efficientnet_l2_noisy_student_475,1,361,NaN,clock,clock,2-10-10,0361_eid_dnn_2-10-10_clock_10_n03196217_1499.png
efficientnet_l2_noisy_student_475,1,362,NaN,car,car,4-10-10,0362_eid_dnn_4-10-10_car_10_n03100240_8702.png
efficientnet_l2_noisy_student_475,1,363,NaN,bear,bear,4-10-10,0363_eid_dnn_4-10-10_bear_10_n02134418_1770.png
efficientnet_l2_noisy_student_475,1,364,NaN,elephant,bear,16-10-10,0364_eid_dnn_16-10-10_bear_10_n02132136_32838.png
efficientnet_l2_noisy_student_475,1,365,NaN,truck,truck,4-10-10,0365_eid_dnn_4-10-10_truck_10_n04467665_68331.png
efficientnet_l2_noisy_student_475,1,366,NaN,airplane,airplane,1-10-10,0366_eid_dnn_1-10-10_airplane_10_n02690373_4506.png
efficientnet_l2_noisy_student_475,1,367,NaN,car,car,2-10-10,0367_eid_dnn_2-10-10_car_10_n03100240_5308.png
efficientnet_l2_noisy_student_475,1,368,NaN,cat,cat,2-10-10,0368_eid_dnn_2-10-10_cat_10_n02124075_15345.png
efficientnet_l2_noisy_student_475,1,369,NaN,knife,bicycle,128-10-10,0369_eid_dnn_128-10-10_bicycle_10_n03792782_50972.png
efficientnet_l2_noisy_student_475,1,370,NaN,clock,knife,8-10-10,0370_eid_dnn_8-10-10_knife_10_n03041632_19098.png
efficientnet_l2_noisy_student_475,1,371,NaN,clock,bottle,128-10-10,0371_eid_dnn_128-10-10_bottle_10_n04560804_15963.png
efficientnet_l2_noisy_student_475,1,372,NaN,clock,bottle,8-10-10,0372_eid_dnn_8-10-10_bottle_10_n04557648_7809.png
efficientnet_l2_noisy_student_475,1,373,NaN,airplane,airplane,1-10-10,0373_eid_dnn_1-10-10_airplane_10_n02690373_17764.png
efficientnet_l2_noisy_student_475,1,374,NaN,clock,elephant,64-10-10,0374_eid_dnn_64-10-10_elephant_10_n02504013_7322.png
efficientnet_l2_noisy_student_475,1,375,NaN,bear,bear,2-10-10,0375_eid_dnn_2-10-10_bear_10_n02134084_2959.png
efficientnet_l2_noisy_student_475,1,376,NaN,bird,bird,2-10-10,0376_eid_dnn_2-10-10_bird_10_n01622779_6563.png
efficientnet_l2_noisy_student_475,1,377,NaN,clock,knife,16-10-10,0377_eid_dnn_16-10-10_knife_10_n03041632_19620.png
efficientnet_l2_noisy_student_475,1,378,NaN,bird,bird,4-10-10,0378_eid_dnn_4-10-10_bird_10_n01530575_35977.png
efficientnet_l2_noisy_student_475,1,379,NaN,knife,cat,128-10-10,0379_eid_dnn_128-10-10_cat_10_n02123394_1757.png
efficientnet_l2_noisy_student_475,1,380,NaN,dog,dog,2-10-10,0380_eid_dnn_2-10-10_dog_10_n02093647_6358.png
efficientnet_l2_noisy_student_475,1,381,NaN,boat,boat,1-10-10,0381_eid_dnn_1-10-10_boat_10_n02951358_1470.png
efficientnet_l2_noisy_student_475,1,382,NaN,knife,elephant,128-10-10,0382_eid_dnn_128-10-10_elephant_10_n02504458_2026.png
efficientnet_l2_noisy_student_475,1,383,NaN,clock,elephant,32-10-10,0383_eid_dnn_32-10-10_elephant_10_n02504458_3730.png
efficientnet_l2_noisy_student_475,1,384,NaN,keyboard,keyboard,8-10-10,0384_eid_dnn_8-10-10_keyboard_10_n03085013_20881.png
efficientnet_l2_noisy_student_475,1,385,NaN,dog,dog,4-10-10,0385_eid_dnn_4-10-10_dog_10_n02105641_8188.png
efficientnet_l2_noisy_student_475,1,386,NaN,clock,clock,32-10-10,0386_eid_dnn_32-10-10_clock_10_n03196217_6320.png
efficientnet_l2_noisy_student_475,1,387,NaN,clock,car,32-10-10,0387_eid_dnn_32-10-10_car_10_n04285008_12333.png
efficientnet_l2_noisy_student_475,1,388,NaN,knife,knife,2-10-10,0388_eid_dnn_2-10-10_knife_10_n03041632_47743.png
efficientnet_l2_noisy_student_475,1,389,NaN,boat,boat,8-10-10,0389_eid_dnn_8-10-10_boat_10_n04612504_8073.png
efficientnet_l2_noisy_student_475,1,390,NaN,knife,knife,128-10-10,0390_eid_dnn_128-10-10_knife_10_n03041632_20770.png
efficientnet_l2_noisy_student_475,1,391,NaN,knife,car,32-10-10,0391_eid_dnn_32-10-10_car_10_n02814533_28783.png
efficientnet_l2_noisy_student_475,1,392,NaN,clock,car,128-10-10,0392_eid_dnn_128-10-10_car_10_n02814533_13533.png
efficientnet_l2_noisy_student_475,1,393,NaN,dog,dog,16-10-10,0393_eid_dnn_16-10-10_dog_10_n02104029_8137.png
efficientnet_l2_noisy_student_475,1,394,NaN,bicycle,bicycle,4-10-10,0394_eid_dnn_4-10-10_bicycle_10_n02835271_3990.png
efficientnet_l2_noisy_student_475,1,395,NaN,bear,bear,4-10-10,0395_eid_dnn_4-10-10_bear_10_n02132136_24311.png
efficientnet_l2_noisy_student_475,1,396,NaN,truck,truck,2-10-10,0396_eid_dnn_2-10-10_truck_10_n03796401_6966.png
efficientnet_l2_noisy_student_475,1,397,NaN,knife,knife,1-10-10,0397_eid_dnn_1-10-10_knife_10_n03041632_8468.png
efficientnet_l2_noisy_student_475,1,398,NaN,clock,elephant,128-10-10,0398_eid_dnn_128-10-10_elephant_10_n02504458_6799.png
efficientnet_l2_noisy_student_475,1,399,NaN,keyboard,keyboard,16-10-10,0399_eid_dnn_16-10-10_keyboard_10_n03085013_24402.png
efficientnet_l2_noisy_student_475,1,400,NaN,clock,knife,16-10-10,0400_eid_dnn_16-10-10_knife_10_n03041632_25772.png
efficientnet_l2_noisy_student_475,1,401,NaN,clock,elephant,32-10-10,0401_eid_dnn_32-10-10_elephant_10_n02504458_5839.png
efficientnet_l2_noisy_student_475,1,402,NaN,knife,elephant,64-10-10,0402_eid_dnn_64-10-10_elephant_10_n02504458_5178.png
efficientnet_l2_noisy_student_475,1,403,NaN,clock,bicycle,32-10-10,0403_eid_dnn_32-10-10_bicycle_10_n02835271_27014.png
efficientnet_l2_noisy_student_475,1,404,NaN,knife,car,128-10-10,0404_eid_dnn_128-10-10_car_10_n04285008_15218.png
efficientnet_l2_noisy_student_475,1,405,NaN,bicycle,bicycle,8-10-10,0405_eid_dnn_8-10-10_bicycle_10_n02835271_19955.png
efficientnet_l2_noisy_student_475,1,406,NaN,truck,truck,1-10-10,0406_eid_dnn_1-10-10_truck_10_n03796401_874.png
efficientnet_l2_noisy_student_475,1,407,NaN,dog,dog,2-10-10,0407_eid_dnn_2-10-10_dog_10_n02108915_6092.png
efficientnet_l2_noisy_student_475,1,408,NaN,airplane,clock,16-10-10,0408_eid_dnn_16-10-10_clock_10_n04548280_6337.png
efficientnet_l2_noisy_student_475,1,409,NaN,knife,boat,4-10-10,0409_eid_dnn_4-10-10_boat_10_n04273569_1388.png
efficientnet_l2_noisy_student_475,1,410,NaN,elephant,clock,64-10-10,0410_eid_dnn_64-10-10_clock_10_n02708093_2676.png
efficientnet_l2_noisy_student_475,1,411,NaN,clock,dog,64-10-10,0411_eid_dnn_64-10-10_dog_10_n02107683_5424.png
efficientnet_l2_noisy_student_475,1,412,NaN,chair,chair,1-10-10,0412_eid_dnn_1-10-10_chair_10_n04099969_29038.png
efficientnet_l2_noisy_student_475,1,413,NaN,clock,clock,16-10-10,0413_eid_dnn_16-10-10_clock_10_n04548280_3219.png
efficientnet_l2_noisy_student_475,1,414,NaN,knife,clock,32-10-10,0414_eid_dnn_32-10-10_clock_10_n03196217_8282.png
efficientnet_l2_noisy_student_475,1,415,NaN,clock,oven,8-10-10,0415_eid_dnn_8-10-10_oven_10_n04111531_22041.png
efficientnet_l2_noisy_student_475,1,416,NaN,bear,bear,8-10-10,0416_eid_dnn_8-10-10_bear_10_n02134084_6964.png
efficientnet_l2_noisy_student_475,1,417,NaN,knife,bicycle,64-10-10,0417_eid_dnn_64-10-10_bicycle_10_n03792782_11921.png
efficientnet_l2_noisy_student_475,1,418,NaN,clock,clock,8-10-10,0418_eid_dnn_8-10-10_clock_10_n04548280_1809.png
efficientnet_l2_noisy_student_475,1,419,NaN,bird,bird,4-10-10,0419_eid_dnn_4-10-10_bird_10_n01833805_202.png
efficientnet_l2_noisy_student_475,1,420,NaN,knife,keyboard,64-10-10,0420_eid_dnn_64-10-10_keyboard_10_n03085013_7511.png
efficientnet_l2_noisy_student_475,1,421,NaN,bird,bird,1-10-10,0421_eid_dnn_1-10-10_bird_10_n02025239_5287.png
efficientnet_l2_noisy_student_475,1,422,NaN,cat,boat,64-10-10,0422_eid_dnn_64-10-10_boat_10_n03662601_27960.png
efficientnet_l2_noisy_student_475,1,423,NaN,chair,bottle,1-10-10,0423_eid_dnn_1-10-10_bottle_10_n04591713_6855.png
efficientnet_l2_noisy_student_475,1,424,NaN,clock,elephant,128-10-10,0424_eid_dnn_128-10-10_elephant_10_n02504013_4424.png
efficientnet_l2_noisy_student_475,1,425,NaN,clock,clock,2-10-10,0425_eid_dnn_2-10-10_clock_10_n04548280_3295.png
efficientnet_l2_noisy_student_475,1,426,NaN,airplane,airplane,1-10-10,0426_eid_dnn_1-10-10_airplane_10_n02690373_6144.png
efficientnet_l2_noisy_student_475,1,427,NaN,airplane,truck,32-10-10,0427_eid_dnn_32-10-10_truck_10_n04467665_70894.png
efficientnet_l2_noisy_student_475,1,428,NaN,knife,boat,128-10-10,0428_eid_dnn_128-10-10_boat_10_n02951358_30474.png
efficientnet_l2_noisy_student_475,1,429,NaN,bear,bear,4-10-10,0429_eid_dnn_4-10-10_bear_10_n02132136_6434.png
efficientnet_l2_noisy_student_475,1,430,NaN,clock,keyboard,32-10-10,0430_eid_dnn_32-10-10_keyboard_10_n04505470_5009.png
efficientnet_l2_noisy_student_475,1,431,NaN,keyboard,keyboard,2-10-10,0431_eid_dnn_2-10-10_keyboard_10_n03085013_13005.png
efficientnet_l2_noisy_student_475,1,432,NaN,chair,chair,1-10-10,0432_eid_dnn_1-10-10_chair_10_n03376595_6865.png
efficientnet_l2_noisy_student_475,1,433,NaN,clock,bicycle,32-10-10,0433_eid_dnn_32-10-10_bicycle_10_n02835271_6122.png
efficientnet_l2_noisy_student_475,1,434,NaN,oven,oven,4-10-10,0434_eid_dnn_4-10-10_oven_10_n04111531_11499.png
efficientnet_l2_noisy_student_475,1,435,NaN,bird,bird,1-10-10,0435_eid_dnn_1-10-10_bird_10_n02009229_5765.png
efficientnet_l2_noisy_student_475,1,436,NaN,knife,bottle,32-10-10,0436_eid_dnn_32-10-10_bottle_10_n04560804_2181.png
efficientnet_l2_noisy_student_475,1,437,NaN,elephant,bicycle,32-10-10,0437_eid_dnn_32-10-10_bicycle_10_n03792782_3774.png
efficientnet_l2_noisy_student_475,1,438,NaN,airplane,bird,16-10-10,0438_eid_dnn_16-10-10_bird_10_n01614925_1683.png
efficientnet_l2_noisy_student_475,1,439,NaN,clock,clock,8-10-10,0439_eid_dnn_8-10-10_clock_10_n02708093_4692.png
efficientnet_l2_noisy_student_475,1,440,NaN,dog,dog,4-10-10,0440_eid_dnn_4-10-10_dog_10_n02109961_71298.png
efficientnet_l2_noisy_student_475,1,441,NaN,keyboard,keyboard,2-10-10,0441_eid_dnn_2-10-10_keyboard_10_n03085013_23269.png
efficientnet_l2_noisy_student_475,1,442,NaN,elephant,elephant,2-10-10,0442_eid_dnn_2-10-10_elephant_10_n02504458_5614.png
efficientnet_l2_noisy_student_475,1,443,NaN,truck,car,2-10-10,0443_eid_dnn_2-10-10_car_10_n04285008_4640.png
efficientnet_l2_noisy_student_475,1,444,NaN,knife,oven,128-10-10,0444_eid_dnn_128-10-10_oven_10_n04111531_6346.png
efficientnet_l2_noisy_student_475,1,445,NaN,chair,chair,2-10-10,0445_eid_dnn_2-10-10_chair_10_n04099969_14851.png
efficientnet_l2_noisy_student_475,1,446,NaN,knife,bird,64-10-10,0446_eid_dnn_64-10-10_bird_10_n02051845_534.png
efficientnet_l2_noisy_student_475,1,447,NaN,clock,bird,128-10-10,0447_eid_dnn_128-10-10_bird_10_n02056570_9342.png
efficientnet_l2_noisy_student_475,1,448,NaN,clock,oven,16-10-10,0448_eid_dnn_16-10-10_oven_10_n04111531_4900.png
efficientnet_l2_noisy_student_475,1,449,NaN,clock,boat,32-10-10,0449_eid_dnn_32-10-10_boat_10_n02951358_31973.png
efficientnet_l2_noisy_student_475,1,450,NaN,keyboard,keyboard,4-10-10,0450_eid_dnn_4-10-10_keyboard_10_n03085013_19842.png
efficientnet_l2_noisy_student_475,1,451,NaN,airplane,keyboard,8-10-10,0451_eid_dnn_8-10-10_keyboard_10_n03085013_8296.png
efficientnet_l2_noisy_student_475,1,452,NaN,clock,car,16-10-10,0452_eid_dnn_16-10-10_car_10_n03100240_3528.png
efficientnet_l2_noisy_student_475,1,453,NaN,cat,cat,8-10-10,0453_eid_dnn_8-10-10_cat_10_n02123159_7210.png
efficientnet_l2_noisy_student_475,1,454,NaN,knife,knife,16-10-10,0454_eid_dnn_16-10-10_knife_10_n03041632_56172.png
efficientnet_l2_noisy_student_475,1,455,NaN,oven,oven,4-10-10,0455_eid_dnn_4-10-10_oven_10_n04111531_2116.png
efficientnet_l2_noisy_student_475,1,456,NaN,bicycle,bicycle,8-10-10,0456_eid_dnn_8-10-10_bicycle_10_n02835271_12477.png
efficientnet_l2_noisy_student_475,1,457,NaN,knife,knife,2-10-10,0457_eid_dnn_2-10-10_knife_10_n03041632_42472.png
efficientnet_l2_noisy_student_475,1,458,NaN,oven,oven,2-10-10,0458_eid_dnn_2-10-10_oven_10_n04111531_8818.png
efficientnet_l2_noisy_student_475,1,459,NaN,truck,truck,2-10-10,0459_eid_dnn_2-10-10_truck_10_n04467665_67115.png
efficientnet_l2_noisy_student_475,1,460,NaN,bird,bird,4-10-10,0460_eid_dnn_4-10-10_bird_10_n02011460_3521.png
efficientnet_l2_noisy_student_475,1,461,NaN,clock,bear,64-10-10,0461_eid_dnn_64-10-10_bear_10_n02133161_3533.png
efficientnet_l2_noisy_student_475,1,462,NaN,bird,bird,8-10-10,0462_eid_dnn_8-10-10_bird_10_n02013706_637.png
efficientnet_l2_noisy_student_475,1,463,NaN,elephant,bear,64-10-10,0463_eid_dnn_64-10-10_bear_10_n02132136_29636.png
efficientnet_l2_noisy_student_475,1,464,NaN,bicycle,bicycle,2-10-10,0464_eid_dnn_2-10-10_bicycle_10_n02835271_634.png
efficientnet_l2_noisy_student_475,1,465,NaN,keyboard,keyboard,1-10-10,0465_eid_dnn_1-10-10_keyboard_10_n04505470_4621.png
efficientnet_l2_noisy_student_475,1,466,NaN,airplane,bear,16-10-10,0466_eid_dnn_16-10-10_bear_10_n02134084_2844.png
efficientnet_l2_noisy_student_475,1,467,NaN,bicycle,bicycle,4-10-10,0467_eid_dnn_4-10-10_bicycle_10_n03792782_17088.png
efficientnet_l2_noisy_student_475,1,468,NaN,clock,clock,4-10-10,0468_eid_dnn_4-10-10_clock_10_n03196217_8706.png
efficientnet_l2_noisy_student_475,1,469,NaN,bottle,oven,4-10-10,0469_eid_dnn_4-10-10_oven_10_n04111531_15052.png
efficientnet_l2_noisy_student_475,1,470,NaN,clock,bottle,16-10-10,0470_eid_dnn_16-10-10_bottle_10_n04560804_5769.png
efficientnet_l2_noisy_student_475,1,471,NaN,clock,dog,128-10-10,0471_eid_dnn_128-10-10_dog_10_n02110063_14116.png
efficientnet_l2_noisy_student_475,1,472,NaN,clock,cat,32-10-10,0472_eid_dnn_32-10-10_cat_10_n02124075_3609.png
efficientnet_l2_noisy_student_475,1,473,NaN,airplane,airplane,32-10-10,0473_eid_dnn_32-10-10_airplane_10_n02690373_10926.png
efficientnet_l2_noisy_student_475,1,474,NaN,airplane,bird,16-10-10,0474_eid_dnn_16-10-10_bird_10_n02033041_7229.png
efficientnet_l2_noisy_student_475,1,475,NaN,bird,bird,2-10-10,0475_eid_dnn_2-10-10_bird_10_n02006656_611.png
efficientnet_l2_noisy_student_475,1,476,NaN,knife,bear,16-10-10,0476_eid_dnn_16-10-10_bear_10_n02133161_958.png
efficientnet_l2_noisy_student_475,1,477,NaN,bird,bird,8-10-10,0477_eid_dnn_8-10-10_bird_10_n01843065_148.png
efficientnet_l2_noisy_student_475,1,478,NaN,clock,cat,32-10-10,0478_eid_dnn_32-10-10_cat_10_n02123597_13623.png
efficientnet_l2_noisy_student_475,1,479,NaN,elephant,bicycle,8-10-10,0479_eid_dnn_8-10-10_bicycle_10_n02835271_12957.png
efficientnet_l2_noisy_student_475,1,480,NaN,knife,knife,8-10-10,0480_eid_dnn_8-10-10_knife_10_n03041632_96714.png
efficientnet_l2_noisy_student_475,1,481,NaN,clock,bear,128-10-10,0481_eid_dnn_128-10-10_bear_10_n02133161_3550.png
efficientnet_l2_noisy_student_475,1,482,NaN,airplane,airplane,2-10-10,0482_eid_dnn_2-10-10_airplane_10_n02690373_4471.png
efficientnet_l2_noisy_student_475,1,483,NaN,clock,airplane,64-10-10,0483_eid_dnn_64-10-10_airplane_10_n02690373_2026.png
efficientnet_l2_noisy_student_475,1,484,NaN,car,car,1-10-10,0484_eid_dnn_1-10-10_car_10_n03100240_18270.png
efficientnet_l2_noisy_student_475,1,485,NaN,knife,elephant,128-10-10,0485_eid_dnn_128-10-10_elephant_10_n02504458_5204.png
efficientnet_l2_noisy_student_475,1,486,NaN,oven,oven,1-10-10,0486_eid_dnn_1-10-10_oven_10_n04111531_10339.png
efficientnet_l2_noisy_student_475,1,487,NaN,elephant,elephant,2-10-10,0487_eid_dnn_2-10-10_elephant_10_n02504458_12705.png
efficientnet_l2_noisy_student_475,1,488,NaN,boat,boat,1-10-10,0488_eid_dnn_1-10-10_boat_10_n03344393_9268.png
efficientnet_l2_noisy_student_475,1,489,NaN,clock,bicycle,16-10-10,0489_eid_dnn_16-10-10_bicycle_10_n02835271_23173.png
efficientnet_l2_noisy_student_475,1,490,NaN,clock,knife,32-10-10,0490_eid_dnn_32-10-10_knife_10_n03041632_43975.png
efficientnet_l2_noisy_student_475,1,491,NaN,clock,bicycle,128-10-10,0491_eid_dnn_128-10-10_bicycle_10_n03792782_3299.png
efficientnet_l2_noisy_student_475,1,492,NaN,knife,boat,32-10-10,0492_eid_dnn_32-10-10_boat_10_n04273569_5679.png
efficientnet_l2_noisy_student_475,1,493,NaN,boat,bird,32-10-10,0493_eid_dnn_32-10-10_bird_10_n02056570_10127.png
efficientnet_l2_noisy_student_475,1,494,NaN,clock,bear,32-10-10,0494_eid_dnn_32-10-10_bear_10_n02133161_7688.png
efficientnet_l2_noisy_student_475,1,495,NaN,clock,cat,16-10-10,0495_eid_dnn_16-10-10_cat_10_n02123597_624.png
efficientnet_l2_noisy_student_475,1,496,NaN,clock,bird,64-10-10,0496_eid_dnn_64-10-10_bird_10_n01560419_3399.png
efficientnet_l2_noisy_student_475,1,497,NaN,clock,cat,32-10-10,0497_eid_dnn_32-10-10_cat_10_n02123045_12762.png
efficientnet_l2_noisy_student_475,1,498,NaN,airplane,car,16-10-10,0498_eid_dnn_16-10-10_car_10_n02814533_7247.png
efficientnet_l2_noisy_student_475,1,499,NaN,keyboard,keyboard,4-10-10,0499_eid_dnn_4-10-10_keyboard_10_n03085013_4941.png
efficientnet_l2_noisy_student_475,1,500,NaN,truck,truck,4-10-10,0500_eid_dnn_4-10-10_truck_10_n03417042_6420.png
efficientnet_l2_noisy_student_475,1,501,NaN,clock,boat,64-10-10,0501_eid_dnn_64-10-10_boat_10_n03662601_2120.png
efficientnet_l2_noisy_student_475,1,502,NaN,bear,bear,2-10-10,0502_eid_dnn_2-10-10_bear_10_n02134084_7331.png
efficientnet_l2_noisy_student_475,1,503,NaN,clock,bottle,32-10-10,0503_eid_dnn_32-10-10_bottle_10_n02823428_906.png
efficientnet_l2_noisy_student_475,1,504,NaN,clock,cat,16-10-10,0504_eid_dnn_16-10-10_cat_10_n02123394_270.png
efficientnet_l2_noisy_student_475,1,505,NaN,boat,boat,2-10-10,0505_eid_dnn_2-10-10_boat_10_n02951358_1910.png
efficientnet_l2_noisy_student_475,1,506,NaN,oven,knife,4-10-10,0506_eid_dnn_4-10-10_knife_10_n03041632_23678.png
efficientnet_l2_noisy_student_475,1,507,NaN,airplane,car,16-10-10,0507_eid_dnn_16-10-10_car_10_n02814533_31083.png
efficientnet_l2_noisy_student_475,1,508,NaN,keyboard,keyboard,1-10-10,0508_eid_dnn_1-10-10_keyboard_10_n04505470_2881.png
efficientnet_l2_noisy_student_475,1,509,NaN,cat,cat,8-10-10,0509_eid_dnn_8-10-10_cat_10_n02125311_2923.png
efficientnet_l2_noisy_student_475,1,510,NaN,bicycle,bicycle,2-10-10,0510_eid_dnn_2-10-10_bicycle_10_n03792782_2598.png
efficientnet_l2_noisy_student_475,1,511,NaN,car,car,2-10-10,0511_eid_dnn_2-10-10_car_10_n03100240_4460.png
efficientnet_l2_noisy_student_475,1,512,NaN,knife,knife,4-10-10,0512_eid_dnn_4-10-10_knife_10_n03041632_29920.png
efficientnet_l2_noisy_student_475,1,513,NaN,clock,bird,32-10-10,0513_eid_dnn_32-10-10_bird_10_n01796340_3845.png
efficientnet_l2_noisy_student_475,1,514,NaN,keyboard,keyboard,8-10-10,0514_eid_dnn_8-10-10_keyboard_10_n03085013_21932.png
efficientnet_l2_noisy_student_475,1,515,NaN,bottle,bottle,1-10-10,0515_eid_dnn_1-10-10_bottle_10_n02823428_64.png
efficientnet_l2_noisy_student_475,1,516,NaN,chair,chair,8-10-10,0516_eid_dnn_8-10-10_chair_10_n04099969_4374.png
efficientnet_l2_noisy_student_475,1,517,NaN,clock,clock,1-10-10,0517_eid_dnn_1-10-10_clock_10_n02708093_8257.png
efficientnet_l2_noisy_student_475,1,518,NaN,clock,knife,16-10-10,0518_eid_dnn_16-10-10_knife_10_n03041632_45569.png
efficientnet_l2_noisy_student_475,1,519,NaN,clock,chair,128-10-10,0519_eid_dnn_128-10-10_chair_10_n04099969_1850.png
efficientnet_l2_noisy_student_475,1,520,NaN,dog,dog,2-10-10,0520_eid_dnn_2-10-10_dog_10_n02092002_2008.png
efficientnet_l2_noisy_student_475,1,521,NaN,clock,bicycle,8-10-10,0521_eid_dnn_8-10-10_bicycle_10_n02835271_8105.png
efficientnet_l2_noisy_student_475,1,522,NaN,knife,oven,64-10-10,0522_eid_dnn_64-10-10_oven_10_n04111531_14126.png
efficientnet_l2_noisy_student_475,1,523,NaN,elephant,elephant,4-10-10,0523_eid_dnn_4-10-10_elephant_10_n02504013_13766.png
efficientnet_l2_noisy_student_475,1,524,NaN,clock,bicycle,64-10-10,0524_eid_dnn_64-10-10_bicycle_10_n02835271_18361.png
efficientnet_l2_noisy_student_475,1,525,NaN,clock,bird,8-10-10,0525_eid_dnn_8-10-10_bird_10_n01582220_4708.png
efficientnet_l2_noisy_student_475,1,526,NaN,keyboard,chair,16-10-10,0526_eid_dnn_16-10-10_chair_10_n04099969_101.png
efficientnet_l2_noisy_student_475,1,527,NaN,cat,cat,1-10-10,0527_eid_dnn_1-10-10_cat_10_n02124075_724.png
efficientnet_l2_noisy_student_475,1,528,NaN,knife,bicycle,32-10-10,0528_eid_dnn_32-10-10_bicycle_10_n02835271_43.png
efficientnet_l2_noisy_student_475,1,529,NaN,bird,bird,2-10-10,0529_eid_dnn_2-10-10_bird_10_n02017213_5362.png
efficientnet_l2_noisy_student_475,1,530,NaN,dog,dog,1-10-10,0530_eid_dnn_1-10-10_dog_10_n02088466_1769.png
efficientnet_l2_noisy_student_475,1,531,NaN,bear,bear,1-10-10,0531_eid_dnn_1-10-10_bear_10_n02133161_5653.png
efficientnet_l2_noisy_student_475,1,532,NaN,dog,dog,1-10-10,0532_eid_dnn_1-10-10_dog_10_n02098105_4676.png
efficientnet_l2_noisy_student_475,1,533,NaN,cat,cat,2-10-10,0533_eid_dnn_2-10-10_cat_10_n02123045_3593.png
efficientnet_l2_noisy_student_475,1,534,NaN,knife,bottle,8-10-10,0534_eid_dnn_8-10-10_bottle_10_n04560804_265.png
efficientnet_l2_noisy_student_475,1,535,NaN,clock,knife,128-10-10,0535_eid_dnn_128-10-10_knife_10_n03041632_1556.png
efficientnet_l2_noisy_student_475,1,536,NaN,chair,chair,4-10-10,0536_eid_dnn_4-10-10_chair_10_n02791124_9595.png
efficientnet_l2_noisy_student_475,1,537,NaN,elephant,dog,32-10-10,0537_eid_dnn_32-10-10_dog_10_n02107312_2933.png
efficientnet_l2_noisy_student_475,1,538,NaN,elephant,oven,32-10-10,0538_eid_dnn_32-10-10_oven_10_n04111531_101.png
efficientnet_l2_noisy_student_475,1,539,NaN,truck,truck,4-10-10,0539_eid_dnn_4-10-10_truck_10_n03417042_7204.png
efficientnet_l2_noisy_student_475,1,540,NaN,clock,bear,64-10-10,0540_eid_dnn_64-10-10_bear_10_n02132136_2120.png
efficientnet_l2_noisy_student_475,1,541,NaN,knife,airplane,64-10-10,0541_eid_dnn_64-10-10_airplane_10_n02690373_18412.png
efficientnet_l2_noisy_student_475,1,542,NaN,clock,knife,128-10-10,0542_eid_dnn_128-10-10_knife_10_n03041632_21017.png
efficientnet_l2_noisy_student_475,1,543,NaN,clock,elephant,128-10-10,0543_eid_dnn_128-10-10_elephant_10_n02504458_8414.png
efficientnet_l2_noisy_student_475,1,544,NaN,knife,bottle,128-10-10,0544_eid_dnn_128-10-10_bottle_10_n04557648_11046.png
efficientnet_l2_noisy_student_475,1,545,NaN,clock,clock,64-10-10,0545_eid_dnn_64-10-10_clock_10_n03196217_10578.png
efficientnet_l2_noisy_student_475,1,546,NaN,bear,bear,2-10-10,0546_eid_dnn_2-10-10_bear_10_n02134418_3213.png
efficientnet_l2_noisy_student_475,1,547,NaN,clock,clock,64-10-10,0547_eid_dnn_64-10-10_clock_10_n03196217_6289.png
efficientnet_l2_noisy_student_475,1,548,NaN,airplane,dog,32-10-10,0548_eid_dnn_32-10-10_dog_10_n02096294_1498.png
efficientnet_l2_noisy_student_475,1,549,NaN,elephant,oven,16-10-10,0549_eid_dnn_16-10-10_oven_10_n04111531_519.png
efficientnet_l2_noisy_student_475,1,550,NaN,bird,bird,1-10-10,0550_eid_dnn_1-10-10_bird_10_n01531178_14959.png
efficientnet_l2_noisy_student_475,1,551,NaN,elephant,bear,32-10-10,0551_eid_dnn_32-10-10_bear_10_n02132136_8754.png
efficientnet_l2_noisy_student_475,1,552,NaN,car,car,1-10-10,0552_eid_dnn_1-10-10_car_10_n02814533_73067.png
efficientnet_l2_noisy_student_475,1,553,NaN,boat,cat,8-10-10,0553_eid_dnn_8-10-10_cat_10_n02124075_15378.png
efficientnet_l2_noisy_student_475,1,554,NaN,clock,bird,128-10-10,0554_eid_dnn_128-10-10_bird_10_n01592084_7569.png
efficientnet_l2_noisy_student_475,1,555,NaN,clock,dog,128-10-10,0555_eid_dnn_128-10-10_dog_10_n02094114_3395.png
efficientnet_l2_noisy_student_475,1,556,NaN,chair,chair,4-10-10,0556_eid_dnn_4-10-10_chair_10_n03376595_1712.png
efficientnet_l2_noisy_student_475,1,557,NaN,clock,bear,64-10-10,0557_eid_dnn_64-10-10_bear_10_n02134084_622.png
efficientnet_l2_noisy_student_475,1,558,NaN,clock,clock,8-10-10,0558_eid_dnn_8-10-10_clock_10_n03196217_4912.png
efficientnet_l2_noisy_student_475,1,559,NaN,clock,car,64-10-10,0559_eid_dnn_64-10-10_car_10_n03100240_18815.png
efficientnet_l2_noisy_student_475,1,560,NaN,chair,chair,2-10-10,0560_eid_dnn_2-10-10_chair_10_n04099969_2020.png
efficientnet_l2_noisy_student_475,1,561,NaN,bear,bear,1-10-10,0561_eid_dnn_1-10-10_bear_10_n02132136_7647.png
efficientnet_l2_noisy_student_475,1,562,NaN,clock,oven,128-10-10,0562_eid_dnn_128-10-10_oven_10_n04111531_2796.png
efficientnet_l2_noisy_student_475,1,563,NaN,knife,truck,64-10-10,0563_eid_dnn_64-10-10_truck_10_n03796401_9472.png
efficientnet_l2_noisy_student_475,1,564,NaN,chair,chair,4-10-10,0564_eid_dnn_4-10-10_chair_10_n03376595_12433.png
efficientnet_l2_noisy_student_475,1,565,NaN,truck,truck,4-10-10,0565_eid_dnn_4-10-10_truck_10_n04467665_31539.png
efficientnet_l2_noisy_student_475,1,566,NaN,airplane,airplane,32-10-10,0566_eid_dnn_32-10-10_airplane_10_n02690373_10657.png
efficientnet_l2_noisy_student_475,1,567,NaN,clock,truck,16-10-10,0567_eid_dnn_16-10-10_truck_10_n03796401_5963.png
efficientnet_l2_noisy_student_475,1,568,NaN,clock,dog,64-10-10,0568_eid_dnn_64-10-10_dog_10_n02096294_2233.png
efficientnet_l2_noisy_student_475,1,569,NaN,clock,airplane,128-10-10,0569_eid_dnn_128-10-10_airplane_10_n02690373_4873.png
efficientnet_l2_noisy_student_475,1,570,NaN,truck,truck,1-10-10,0570_eid_dnn_1-10-10_truck_10_n04467665_4825.png
efficientnet_l2_noisy_student_475,1,571,NaN,clock,chair,16-10-10,0571_eid_dnn_16-10-10_chair_10_n04099969_1704.png
efficientnet_l2_noisy_student_475,1,572,NaN,bicycle,bicycle,2-10-10,0572_eid_dnn_2-10-10_bicycle_10_n02835271_1573.png
efficientnet_l2_noisy_student_475,1,573,NaN,boat,boat,2-10-10,0573_eid_dnn_2-10-10_boat_10_n04273569_12725.png
efficientnet_l2_noisy_student_475,1,574,NaN,clock,knife,128-10-10,0574_eid_dnn_128-10-10_knife_10_n03041632_11285.png
efficientnet_l2_noisy_student_475,1,575,NaN,clock,clock,4-10-10,0575_eid_dnn_4-10-10_clock_10_n03196217_8254.png
efficientnet_l2_noisy_student_475,1,576,NaN,airplane,knife,16-10-10,0576_eid_dnn_16-10-10_knife_10_n03041632_15099.png
efficientnet_l2_noisy_student_475,1,577,NaN,knife,cat,64-10-10,0577_eid_dnn_64-10-10_cat_10_n02125311_30452.png
efficientnet_l2_noisy_student_475,1,578,NaN,clock,bottle,32-10-10,0578_eid_dnn_32-10-10_bottle_10_n04591713_6804.png
efficientnet_l2_noisy_student_475,1,579,NaN,clock,dog,64-10-10,0579_eid_dnn_64-10-10_dog_10_n02088364_14369.png
efficientnet_l2_noisy_student_475,1,580,NaN,clock,truck,32-10-10,0580_eid_dnn_32-10-10_truck_10_n03796401_16425.png
efficientnet_l2_noisy_student_475,1,581,NaN,clock,truck,64-10-10,0581_eid_dnn_64-10-10_truck_10_n03417042_5406.png
efficientnet_l2_noisy_student_475,1,582,NaN,knife,knife,1-10-10,0582_eid_dnn_1-10-10_knife_10_n03041632_52929.png
efficientnet_l2_noisy_student_475,1,583,NaN,clock,chair,64-10-10,0583_eid_dnn_64-10-10_chair_10_n03376595_4820.png
efficientnet_l2_noisy_student_475,1,584,NaN,chair,chair,1-10-10,0584_eid_dnn_1-10-10_chair_10_n03376595_787.png
efficientnet_l2_noisy_student_475,1,585,NaN,chair,chair,2-10-10,0585_eid_dnn_2-10-10_chair_10_n03376595_7709.png
efficientnet_l2_noisy_student_475,1,586,NaN,bottle,bottle,1-10-10,0586_eid_dnn_1-10-10_bottle_10_n03983396_11006.png
efficientnet_l2_noisy_student_475,1,587,NaN,clock,oven,8-10-10,0587_eid_dnn_8-10-10_oven_10_n04111531_458.png
efficientnet_l2_noisy_student_475,1,588,NaN,knife,cat,128-10-10,0588_eid_dnn_128-10-10_cat_10_n02123045_7829.png
efficientnet_l2_noisy_student_475,1,589,NaN,bear,bear,1-10-10,0589_eid_dnn_1-10-10_bear_10_n02134418_4685.png
efficientnet_l2_noisy_student_475,1,590,NaN,clock,knife,64-10-10,0590_eid_dnn_64-10-10_knife_10_n03041632_1964.png
efficientnet_l2_noisy_student_475,1,591,NaN,car,car,4-10-10,0591_eid_dnn_4-10-10_car_10_n03100240_17472.png
efficientnet_l2_noisy_student_475,1,592,NaN,clock,dog,16-10-10,0592_eid_dnn_16-10-10_dog_10_n02113023_1980.png
efficientnet_l2_noisy_student_475,1,593,NaN,airplane,dog,32-10-10,0593_eid_dnn_32-10-10_dog_10_n02100735_6359.png
efficientnet_l2_noisy_student_475,1,594,NaN,knife,knife,1-10-10,0594_eid_dnn_1-10-10_knife_10_n03041632_31849.png
efficientnet_l2_noisy_student_475,1,595,NaN,airplane,bird,8-10-10,0595_eid_dnn_8-10-10_bird_10_n01532829_23378.png
efficientnet_l2_noisy_student_475,1,596,NaN,clock,clock,64-10-10,0596_eid_dnn_64-10-10_clock_10_n02708093_5127.png
efficientnet_l2_noisy_student_475,1,597,NaN,bear,bear,4-10-10,0597_eid_dnn_4-10-10_bear_10_n02134084_12148.png
efficientnet_l2_noisy_student_475,1,598,NaN,elephant,elephant,4-10-10,0598_eid_dnn_4-10-10_elephant_10_n02504458_63.png
efficientnet_l2_noisy_student_475,1,599,NaN,dog,dog,2-10-10,0599_eid_dnn_2-10-10_dog_10_n02108551_13160.png
efficientnet_l2_noisy_student_475,1,600,NaN,bicycle,bicycle,2-10-10,0600_eid_dnn_2-10-10_bicycle_10_n02835271_3215.png
efficientnet_l2_noisy_student_475,1,601,NaN,elephant,bicycle,16-10-10,0601_eid_dnn_16-10-10_bicycle_10_n03792782_14216.png
efficientnet_l2_noisy_student_475,1,602,NaN,bicycle,bicycle,2-10-10,0602_eid_dnn_2-10-10_bicycle_10_n03792782_25352.png
efficientnet_l2_noisy_student_475,1,603,NaN,clock,boat,128-10-10,0603_eid_dnn_128-10-10_boat_10_n04273569_1482.png
efficientnet_l2_noisy_student_475,1,604,NaN,car,car,2-10-10,0604_eid_dnn_2-10-10_car_10_n02814533_59053.png
efficientnet_l2_noisy_student_475,1,605,NaN,knife,airplane,128-10-10,0605_eid_dnn_128-10-10_airplane_10_n02690373_10462.png
efficientnet_l2_noisy_student_475,1,606,NaN,bottle,bottle,8-10-10,0606_eid_dnn_8-10-10_bottle_10_n04560804_15379.png
efficientnet_l2_noisy_student_475,1,607,NaN,airplane,chair,16-10-10,0607_eid_dnn_16-10-10_chair_10_n02791124_1140.png
efficientnet_l2_noisy_student_475,1,608,NaN,dog,dog,8-10-10,0608_eid_dnn_8-10-10_dog_10_n02101388_24945.png
efficientnet_l2_noisy_student_475,1,609,NaN,clock,cat,64-10-10,0609_eid_dnn_64-10-10_cat_10_n02124075_20957.png
efficientnet_l2_noisy_student_475,1,610,NaN,elephant,elephant,1-10-10,0610_eid_dnn_1-10-10_elephant_10_n02504013_8105.png
efficientnet_l2_noisy_student_475,1,611,NaN,truck,truck,2-10-10,0611_eid_dnn_2-10-10_truck_10_n03796401_13992.png
efficientnet_l2_noisy_student_475,1,612,NaN,clock,bottle,128-10-10,0612_eid_dnn_128-10-10_bottle_10_n04560804_22426.png
efficientnet_l2_noisy_student_475,1,613,NaN,cat,cat,1-10-10,0613_eid_dnn_1-10-10_cat_10_n02123159_2100.png
efficientnet_l2_noisy_student_475,1,614,NaN,clock,clock,64-10-10,0614_eid_dnn_64-10-10_clock_10_n02708093_6560.png
efficientnet_l2_noisy_student_475,1,615,NaN,bird,bird,1-10-10,0615_eid_dnn_1-10-10_bird_10_n01855032_4905.png
efficientnet_l2_noisy_student_475,1,616,NaN,clock,clock,2-10-10,0616_eid_dnn_2-10-10_clock_10_n04548280_2616.png
efficientnet_l2_noisy_student_475,1,617,NaN,truck,truck,2-10-10,0617_eid_dnn_2-10-10_truck_10_n03417042_3789.png
efficientnet_l2_noisy_student_475,1,618,NaN,knife,oven,64-10-10,0618_eid_dnn_64-10-10_oven_10_n04111531_7356.png
efficientnet_l2_noisy_student_475,1,619,NaN,cat,cat,4-10-10,0619_eid_dnn_4-10-10_cat_10_n02124075_18687.png
efficientnet_l2_noisy_student_475,1,620,NaN,keyboard,keyboard,8-10-10,0620_eid_dnn_8-10-10_keyboard_10_n03085013_17884.png
efficientnet_l2_noisy_student_475,1,621,NaN,keyboard,keyboard,2-10-10,0621_eid_dnn_2-10-10_keyboard_10_n03085013_4780.png
efficientnet_l2_noisy_student_475,1,622,NaN,clock,cat,16-10-10,0622_eid_dnn_16-10-10_cat_10_n02123045_15476.png
efficientnet_l2_noisy_student_475,1,623,NaN,keyboard,keyboard,4-10-10,0623_eid_dnn_4-10-10_keyboard_10_n03085013_6095.png
efficientnet_l2_noisy_student_475,1,624,NaN,airplane,airplane,1-10-10,0624_eid_dnn_1-10-10_airplane_10_n02690373_18848.png
efficientnet_l2_noisy_student_475,1,625,NaN,elephant,bicycle,16-10-10,0625_eid_dnn_16-10-10_bicycle_10_n02835271_18706.png
efficientnet_l2_noisy_student_475,1,626,NaN,dog,dog,1-10-10,0626_eid_dnn_1-10-10_dog_10_n02111500_1393.png
efficientnet_l2_noisy_student_475,1,627,NaN,airplane,airplane,2-10-10,0627_eid_dnn_2-10-10_airplane_10_n02690373_5748.png
efficientnet_l2_noisy_student_475,1,628,NaN,knife,dog,128-10-10,0628_eid_dnn_128-10-10_dog_10_n02100877_7049.png
efficientnet_l2_noisy_student_475,1,629,NaN,elephant,bear,32-10-10,0629_eid_dnn_32-10-10_bear_10_n02134084_6854.png
efficientnet_l2_noisy_student_475,1,630,NaN,airplane,bottle,16-10-10,0630_eid_dnn_16-10-10_bottle_10_n03983396_11402.png
efficientnet_l2_noisy_student_475,1,631,NaN,clock,cat,64-10-10,0631_eid_dnn_64-10-10_cat_10_n02124075_2813.png
efficientnet_l2_noisy_student_475,1,632,NaN,airplane,keyboard,32-10-10,0632_eid_dnn_32-10-10_keyboard_10_n03085013_23814.png
efficientnet_l2_noisy_student_475,1,633,NaN,cat,cat,2-10-10,0633_eid_dnn_2-10-10_cat_10_n02125311_30349.png
efficientnet_l2_noisy_student_475,1,634,NaN,airplane,bear,16-10-10,0634_eid_dnn_16-10-10_bear_10_n02133161_1234.png
efficientnet_l2_noisy_student_475,1,635,NaN,clock,oven,128-10-10,0635_eid_dnn_128-10-10_oven_10_n04111531_9779.png
efficientnet_l2_noisy_student_475,1,636,NaN,knife,car,64-10-10,0636_eid_dnn_64-10-10_car_10_n02814533_19373.png
efficientnet_l2_noisy_student_475,1,637,NaN,bird,bird,4-10-10,0637_eid_dnn_4-10-10_bird_10_n02051845_41380.png
efficientnet_l2_noisy_student_475,1,638,NaN,elephant,cat,16-10-10,0638_eid_dnn_16-10-10_cat_10_n02123159_2455.png
efficientnet_l2_noisy_student_475,1,639,NaN,knife,knife,8-10-10,0639_eid_dnn_8-10-10_knife_10_n03041632_23803.png
efficientnet_l2_noisy_student_475,1,640,NaN,elephant,boat,16-10-10,0640_eid_dnn_16-10-10_boat_10_n02951358_2013.png
efficientnet_l2_noisy_student_475,1,641,NaN,clock,bottle,64-10-10,0641_eid_dnn_64-10-10_bottle_10_n04591713_6561.png
efficientnet_l2_noisy_student_475,1,642,NaN,elephant,elephant,32-10-10,0642_eid_dnn_32-10-10_elephant_10_n02504013_12531.png
efficientnet_l2_noisy_student_475,1,643,NaN,bottle,boat,64-10-10,0643_eid_dnn_64-10-10_boat_10_n04612504_4719.png
efficientnet_l2_noisy_student_475,1,644,NaN,clock,car,32-10-10,0644_eid_dnn_32-10-10_car_10_n02814533_46403.png
efficientnet_l2_noisy_student_475,1,645,NaN,airplane,airplane,8-10-10,0645_eid_dnn_8-10-10_airplane_10_n02690373_8304.png
efficientnet_l2_noisy_student_475,1,646,NaN,clock,boat,16-10-10,0646_eid_dnn_16-10-10_boat_10_n03662601_2686.png
efficientnet_l2_noisy_student_475,1,647,NaN,dog,dog,2-10-10,0647_eid_dnn_2-10-10_dog_10_n02099849_2787.png
efficientnet_l2_noisy_student_475,1,648,NaN,elephant,elephant,1-10-10,0648_eid_dnn_1-10-10_elephant_10_n02504458_7063.png
efficientnet_l2_noisy_student_475,1,649,NaN,chair,chair,1-10-10,0649_eid_dnn_1-10-10_chair_10_n03376595_6938.png
efficientnet_l2_noisy_student_475,1,650,NaN,clock,chair,8-10-10,0650_eid_dnn_8-10-10_chair_10_n02791124_5191.png
efficientnet_l2_noisy_student_475,1,651,NaN,boat,boat,2-10-10,0651_eid_dnn_2-10-10_boat_10_n02951358_2350.png
efficientnet_l2_noisy_student_475,1,652,NaN,clock,bear,8-10-10,0652_eid_dnn_8-10-10_bear_10_n02132136_6266.png
efficientnet_l2_noisy_student_475,1,653,NaN,clock,chair,32-10-10,0653_eid_dnn_32-10-10_chair_10_n03376595_8964.png
efficientnet_l2_noisy_student_475,1,654,NaN,airplane,airplane,2-10-10,0654_eid_dnn_2-10-10_airplane_10_n02690373_4042.png
efficientnet_l2_noisy_student_475,1,655,NaN,oven,oven,2-10-10,0655_eid_dnn_2-10-10_oven_10_n04111531_845.png
efficientnet_l2_noisy_student_475,1,656,NaN,knife,car,32-10-10,0656_eid_dnn_32-10-10_car_10_n02814533_49630.png
efficientnet_l2_noisy_student_475,1,657,NaN,knife,knife,4-10-10,0657_eid_dnn_4-10-10_knife_10_n03041632_40450.png
efficientnet_l2_noisy_student_475,1,658,NaN,airplane,chair,16-10-10,0658_eid_dnn_16-10-10_chair_10_n04429376_11720.png
efficientnet_l2_noisy_student_475,1,659,NaN,clock,knife,4-10-10,0659_eid_dnn_4-10-10_knife_10_n03041632_27929.png
efficientnet_l2_noisy_student_475,1,660,NaN,bird,bird,1-10-10,0660_eid_dnn_1-10-10_bird_10_n02018207_10146.png
efficientnet_l2_noisy_student_475,1,661,NaN,clock,elephant,32-10-10,0661_eid_dnn_32-10-10_elephant_10_n02504458_2471.png
efficientnet_l2_noisy_student_475,1,662,NaN,clock,oven,8-10-10,0662_eid_dnn_8-10-10_oven_10_n04111531_20511.png
efficientnet_l2_noisy_student_475,1,663,NaN,clock,truck,32-10-10,0663_eid_dnn_32-10-10_truck_10_n03417042_3228.png
efficientnet_l2_noisy_student_475,1,664,NaN,cat,cat,2-10-10,0664_eid_dnn_2-10-10_cat_10_n02125311_9364.png
efficientnet_l2_noisy_student_475,1,665,NaN,car,car,2-10-10,0665_eid_dnn_2-10-10_car_10_n04285008_16701.png
efficientnet_l2_noisy_student_475,1,666,NaN,boat,boat,8-10-10,0666_eid_dnn_8-10-10_boat_10_n04273569_2667.png
efficientnet_l2_noisy_student_475,1,667,NaN,boat,boat,1-10-10,0667_eid_dnn_1-10-10_boat_10_n03662601_24208.png
efficientnet_l2_noisy_student_475,1,668,NaN,truck,truck,8-10-10,0668_eid_dnn_8-10-10_truck_10_n03417042_11037.png
efficientnet_l2_noisy_student_475,1,669,NaN,bird,bird,1-10-10,0669_eid_dnn_1-10-10_bird_10_n02002724_19618.png
efficientnet_l2_noisy_student_475,1,670,NaN,elephant,bear,16-10-10,0670_eid_dnn_16-10-10_bear_10_n02134418_1663.png
efficientnet_l2_noisy_student_475,1,671,NaN,clock,chair,128-10-10,0671_eid_dnn_128-10-10_chair_10_n04099969_19484.png
efficientnet_l2_noisy_student_475,1,672,NaN,car,car,1-10-10,0672_eid_dnn_1-10-10_car_10_n04285008_2727.png
efficientnet_l2_noisy_student_475,1,673,NaN,clock,bicycle,32-10-10,0673_eid_dnn_32-10-10_bicycle_10_n03792782_14935.png
efficientnet_l2_noisy_student_475,1,674,NaN,knife,cat,128-10-10,0674_eid_dnn_128-10-10_cat_10_n02124075_8320.png
efficientnet_l2_noisy_student_475,1,675,NaN,chair,chair,4-10-10,0675_eid_dnn_4-10-10_chair_10_n04429376_57014.png
efficientnet_l2_noisy_student_475,1,676,NaN,oven,oven,1-10-10,0676_eid_dnn_1-10-10_oven_10_n04111531_2385.png
efficientnet_l2_noisy_student_475,1,677,NaN,clock,dog,64-10-10,0677_eid_dnn_64-10-10_dog_10_n02113023_10107.png
efficientnet_l2_noisy_student_475,1,678,NaN,clock,elephant,16-10-10,0678_eid_dnn_16-10-10_elephant_10_n02504458_4708.png
efficientnet_l2_noisy_student_475,1,679,NaN,knife,truck,64-10-10,0679_eid_dnn_64-10-10_truck_10_n04467665_70694.png
efficientnet_l2_noisy_student_475,1,680,NaN,bird,bird,1-10-10,0680_eid_dnn_1-10-10_bird_10_n01843065_1179.png
efficientnet_l2_noisy_student_475,1,681,NaN,truck,truck,1-10-10,0681_eid_dnn_1-10-10_truck_10_n03417042_11475.png
efficientnet_l2_noisy_student_475,1,682,NaN,elephant,bicycle,64-10-10,0682_eid_dnn_64-10-10_bicycle_10_n02835271_6137.png
efficientnet_l2_noisy_student_475,1,683,NaN,airplane,airplane,16-10-10,0683_eid_dnn_16-10-10_airplane_10_n02690373_10001.png
efficientnet_l2_noisy_student_475,1,684,NaN,cat,cat,2-10-10,0684_eid_dnn_2-10-10_cat_10_n02124075_17347.png
efficientnet_l2_noisy_student_475,1,685,NaN,clock,keyboard,16-10-10,0685_eid_dnn_16-10-10_keyboard_10_n04505470_647.png
efficientnet_l2_noisy_student_475,1,686,NaN,bottle,bottle,4-10-10,0686_eid_dnn_4-10-10_bottle_10_n03983396_3028.png
efficientnet_l2_noisy_student_475,1,687,NaN,car,car,1-10-10,0687_eid_dnn_1-10-10_car_10_n02814533_81090.png
efficientnet_l2_noisy_student_475,1,688,NaN,clock,truck,32-10-10,0688_eid_dnn_32-10-10_truck_10_n03417042_18152.png
efficientnet_l2_noisy_student_475,1,689,NaN,clock,bird,128-10-10,0689_eid_dnn_128-10-10_bird_10_n02033041_617.png
efficientnet_l2_noisy_student_475,1,690,NaN,knife,cat,64-10-10,0690_eid_dnn_64-10-10_cat_10_n02123159_7270.png
efficientnet_l2_noisy_student_475,1,691,NaN,clock,bird,64-10-10,0691_eid_dnn_64-10-10_bird_10_n01532829_20405.png
efficientnet_l2_noisy_student_475,1,692,NaN,clock,bottle,32-10-10,0692_eid_dnn_32-10-10_bottle_10_n04557648_182.png
efficientnet_l2_noisy_student_475,1,693,NaN,clock,car,64-10-10,0693_eid_dnn_64-10-10_car_10_n04285008_11745.png
efficientnet_l2_noisy_student_475,1,694,NaN,bear,bear,4-10-10,0694_eid_dnn_4-10-10_bear_10_n02134084_38915.png
efficientnet_l2_noisy_student_475,1,695,NaN,keyboard,keyboard,8-10-10,0695_eid_dnn_8-10-10_keyboard_10_n03085013_21066.png
efficientnet_l2_noisy_student_475,1,696,NaN,bear,bear,2-10-10,0696_eid_dnn_2-10-10_bear_10_n02133161_6458.png
efficientnet_l2_noisy_student_475,1,697,NaN,clock,truck,128-10-10,0697_eid_dnn_128-10-10_truck_10_n04467665_67909.png
efficientnet_l2_noisy_student_475,1,698,NaN,car,car,4-10-10,0698_eid_dnn_4-10-10_car_10_n04285008_12691.png
efficientnet_l2_noisy_student_475,1,699,NaN,clock,truck,8-10-10,0699_eid_dnn_8-10-10_truck_10_n04467665_69882.png
efficientnet_l2_noisy_student_475,1,700,NaN,cat,cat,4-10-10,0700_eid_dnn_4-10-10_cat_10_n02123045_1902.png
efficientnet_l2_noisy_student_475,1,701,NaN,car,car,4-10-10,0701_eid_dnn_4-10-10_car_10_n03100240_5709.png
efficientnet_l2_noisy_student_475,1,702,NaN,dog,bear,8-10-10,0702_eid_dnn_8-10-10_bear_10_n02134084_1938.png
efficientnet_l2_noisy_student_475,1,703,NaN,clock,clock,2-10-10,0703_eid_dnn_2-10-10_clock_10_n02708093_6820.png
efficientnet_l2_noisy_student_475,1,704,NaN,airplane,airplane,1-10-10,0704_eid_dnn_1-10-10_airplane_10_n02690373_5689.png
efficientnet_l2_noisy_student_475,1,705,NaN,boat,elephant,16-10-10,0705_eid_dnn_16-10-10_elephant_10_n02504013_8563.png
efficientnet_l2_noisy_student_475,1,706,NaN,bottle,bottle,16-10-10,0706_eid_dnn_16-10-10_bottle_10_n03937543_7767.png
efficientnet_l2_noisy_student_475,1,707,NaN,clock,keyboard,128-10-10,0707_eid_dnn_128-10-10_keyboard_10_n03085013_6862.png
efficientnet_l2_noisy_student_475,1,708,NaN,bottle,bottle,2-10-10,0708_eid_dnn_2-10-10_bottle_10_n03937543_1413.png
efficientnet_l2_noisy_student_475,1,709,NaN,clock,truck,8-10-10,0709_eid_dnn_8-10-10_truck_10_n03796401_17201.png
efficientnet_l2_noisy_student_475,1,710,NaN,clock,cat,32-10-10,0710_eid_dnn_32-10-10_cat_10_n02125311_13152.png
efficientnet_l2_noisy_student_475,1,711,NaN,airplane,truck,8-10-10,0711_eid_dnn_8-10-10_truck_10_n03796401_14203.png
efficientnet_l2_noisy_student_475,1,712,NaN,clock,bird,32-10-10,0712_eid_dnn_32-10-10_bird_10_n01537544_3720.png
efficientnet_l2_noisy_student_475,1,713,NaN,clock,boat,128-10-10,0713_eid_dnn_128-10-10_boat_10_n02951358_14346.png
efficientnet_l2_noisy_student_475,1,714,NaN,knife,airplane,64-10-10,0714_eid_dnn_64-10-10_airplane_10_n02690373_757.png
efficientnet_l2_noisy_student_475,1,715,NaN,clock,clock,16-10-10,0715_eid_dnn_16-10-10_clock_10_n04548280_8304.png
efficientnet_l2_noisy_student_475,1,716,NaN,clock,knife,32-10-10,0716_eid_dnn_32-10-10_knife_10_n03041632_20697.png
efficientnet_l2_noisy_student_475,1,717,NaN,clock,clock,128-10-10,0717_eid_dnn_128-10-10_clock_10_n02708093_7883.png
efficientnet_l2_noisy_student_475,1,718,NaN,oven,oven,4-10-10,0718_eid_dnn_4-10-10_oven_10_n04111531_14559.png
efficientnet_l2_noisy_student_475,1,719,NaN,clock,oven,64-10-10,0719_eid_dnn_64-10-10_oven_10_n04111531_5906.png
efficientnet_l2_noisy_student_475,1,720,NaN,knife,knife,2-10-10,0720_eid_dnn_2-10-10_knife_10_n03041632_4279.png
efficientnet_l2_noisy_student_475,1,721,NaN,clock,dog,128-10-10,0721_eid_dnn_128-10-10_dog_10_n02099601_7103.png
efficientnet_l2_noisy_student_475,1,722,NaN,elephant,oven,64-10-10,0722_eid_dnn_64-10-10_oven_10_n04111531_5351.png
efficientnet_l2_noisy_student_475,1,723,NaN,bicycle,bicycle,4-10-10,0723_eid_dnn_4-10-10_bicycle_10_n03792782_7518.png
efficientnet_l2_noisy_student_475,1,724,NaN,elephant,bottle,32-10-10,0724_eid_dnn_32-10-10_bottle_10_n03983396_4321.png
efficientnet_l2_noisy_student_475,1,725,NaN,cat,cat,1-10-10,0725_eid_dnn_1-10-10_cat_10_n02123394_7782.png
efficientnet_l2_noisy_student_475,1,726,NaN,knife,chair,64-10-10,0726_eid_dnn_64-10-10_chair_10_n02791124_3656.png
efficientnet_l2_noisy_student_475,1,727,NaN,clock,truck,128-10-10,0727_eid_dnn_128-10-10_truck_10_n04467665_15235.png
efficientnet_l2_noisy_student_475,1,728,NaN,clock,clock,128-10-10,0728_eid_dnn_128-10-10_clock_10_n02708093_7054.png
efficientnet_l2_noisy_student_475,1,729,NaN,elephant,elephant,8-10-10,0729_eid_dnn_8-10-10_elephant_10_n02504013_6737.png
efficientnet_l2_noisy_student_475,1,730,NaN,boat,boat,1-10-10,0730_eid_dnn_1-10-10_boat_10_n02951358_3452.png
efficientnet_l2_noisy_student_475,1,731,NaN,airplane,bird,32-10-10,0731_eid_dnn_32-10-10_bird_10_n01537544_5944.png
efficientnet_l2_noisy_student_475,1,732,NaN,clock,car,64-10-10,0732_eid_dnn_64-10-10_car_10_n04285008_3280.png
efficientnet_l2_noisy_student_475,1,733,NaN,airplane,oven,8-10-10,0733_eid_dnn_8-10-10_oven_10_n04111531_24096.png
efficientnet_l2_noisy_student_475,1,734,NaN,clock,oven,16-10-10,0734_eid_dnn_16-10-10_oven_10_n04111531_8181.png
efficientnet_l2_noisy_student_475,1,735,NaN,knife,bird,128-10-10,0735_eid_dnn_128-10-10_bird_10_n01833805_8028.png
efficientnet_l2_noisy_student_475,1,736,NaN,elephant,cat,16-10-10,0736_eid_dnn_16-10-10_cat_10_n02123045_11955.png
efficientnet_l2_noisy_student_475,1,737,NaN,elephant,airplane,16-10-10,0737_eid_dnn_16-10-10_airplane_10_n02690373_9423.png
efficientnet_l2_noisy_student_475,1,738,NaN,keyboard,knife,16-10-10,0738_eid_dnn_16-10-10_knife_10_n03041632_13478.png
efficientnet_l2_noisy_student_475,1,739,NaN,bottle,bottle,2-10-10,0739_eid_dnn_2-10-10_bottle_10_n03983396_795.png
efficientnet_l2_noisy_student_475,1,740,NaN,clock,bottle,128-10-10,0740_eid_dnn_128-10-10_bottle_10_n02823428_8079.png
efficientnet_l2_noisy_student_475,1,741,NaN,elephant,car,16-10-10,0741_eid_dnn_16-10-10_car_10_n03100240_17289.png
efficientnet_l2_noisy_student_475,1,742,NaN,bear,bear,4-10-10,0742_eid_dnn_4-10-10_bear_10_n02132136_1646.png
efficientnet_l2_noisy_student_475,1,743,NaN,knife,boat,64-10-10,0743_eid_dnn_64-10-10_boat_10_n04273569_30203.png
efficientnet_l2_noisy_student_475,1,744,NaN,clock,knife,128-10-10,0744_eid_dnn_128-10-10_knife_10_n03041632_47703.png
efficientnet_l2_noisy_student_475,1,745,NaN,airplane,airplane,1-10-10,0745_eid_dnn_1-10-10_airplane_10_n02690373_3928.png
efficientnet_l2_noisy_student_475,1,746,NaN,dog,dog,8-10-10,0746_eid_dnn_8-10-10_dog_10_n02093991_4977.png
efficientnet_l2_noisy_student_475,1,747,NaN,dog,dog,4-10-10,0747_eid_dnn_4-10-10_dog_10_n02113712_5816.png
efficientnet_l2_noisy_student_475,1,748,NaN,car,car,2-10-10,0748_eid_dnn_2-10-10_car_10_n02814533_62992.png
efficientnet_l2_noisy_student_475,1,749,NaN,bear,bear,2-10-10,0749_eid_dnn_2-10-10_bear_10_n02134084_4818.png
efficientnet_l2_noisy_student_475,1,750,NaN,knife,elephant,128-10-10,0750_eid_dnn_128-10-10_elephant_10_n02504458_5333.png
efficientnet_l2_noisy_student_475,1,751,NaN,bottle,bottle,1-10-10,0751_eid_dnn_1-10-10_bottle_10_n04560804_17045.png
efficientnet_l2_noisy_student_475,1,752,NaN,oven,oven,1-10-10,0752_eid_dnn_1-10-10_oven_10_n04111531_3126.png
efficientnet_l2_noisy_student_475,1,753,NaN,elephant,oven,16-10-10,0753_eid_dnn_16-10-10_oven_10_n04111531_13831.png
efficientnet_l2_noisy_student_475,1,754,NaN,clock,truck,16-10-10,0754_eid_dnn_16-10-10_truck_10_n03417042_6941.png
efficientnet_l2_noisy_student_475,1,755,NaN,knife,bird,16-10-10,0755_eid_dnn_16-10-10_bird_10_n02017213_1619.png
efficientnet_l2_noisy_student_475,1,756,NaN,cat,cat,4-10-10,0756_eid_dnn_4-10-10_cat_10_n02123159_273.png
efficientnet_l2_noisy_student_475,1,757,NaN,knife,chair,64-10-10,0757_eid_dnn_64-10-10_chair_10_n04429376_11956.png
efficientnet_l2_noisy_student_475,1,758,NaN,boat,boat,4-10-10,0758_eid_dnn_4-10-10_boat_10_n03344393_11788.png
efficientnet_l2_noisy_student_475,1,759,NaN,clock,oven,16-10-10,0759_eid_dnn_16-10-10_oven_10_n04111531_8852.png
efficientnet_l2_noisy_student_475,1,760,NaN,clock,bottle,32-10-10,0760_eid_dnn_32-10-10_bottle_10_n04591713_6024.png
efficientnet_l2_noisy_student_475,1,761,NaN,clock,chair,16-10-10,0761_eid_dnn_16-10-10_chair_10_n03376595_5304.png
efficientnet_l2_noisy_student_475,1,762,NaN,clock,truck,64-10-10,0762_eid_dnn_64-10-10_truck_10_n03417042_18072.png
efficientnet_l2_noisy_student_475,1,763,NaN,clock,car,128-10-10,0763_eid_dnn_128-10-10_car_10_n04285008_8727.png
efficientnet_l2_noisy_student_475,1,764,NaN,truck,truck,1-10-10,0764_eid_dnn_1-10-10_truck_10_n03417042_29384.png
efficientnet_l2_noisy_student_475,1,765,NaN,elephant,elephant,4-10-10,0765_eid_dnn_4-10-10_elephant_10_n02504013_14440.png
efficientnet_l2_noisy_student_475,1,766,NaN,bird,bird,4-10-10,0766_eid_dnn_4-10-10_bird_10_n02007558_16547.png
efficientnet_l2_noisy_student_475,1,767,NaN,elephant,knife,32-10-10,0767_eid_dnn_32-10-10_knife_10_n03041632_44212.png
efficientnet_l2_noisy_student_475,1,768,NaN,elephant,elephant,2-10-10,0768_eid_dnn_2-10-10_elephant_10_n02504458_14308.png
efficientnet_l2_noisy_student_475,1,769,NaN,knife,knife,8-10-10,0769_eid_dnn_8-10-10_knife_10_n03041632_31363.png
efficientnet_l2_noisy_student_475,1,770,NaN,airplane,airplane,8-10-10,0770_eid_dnn_8-10-10_airplane_10_n02690373_1563.png
efficientnet_l2_noisy_student_475,1,771,NaN,knife,bear,128-10-10,0771_eid_dnn_128-10-10_bear_10_n02132136_1624.png
efficientnet_l2_noisy_student_475,1,772,NaN,oven,oven,2-10-10,0772_eid_dnn_2-10-10_oven_10_n04111531_13625.png
efficientnet_l2_noisy_student_475,1,773,NaN,cat,cat,4-10-10,0773_eid_dnn_4-10-10_cat_10_n02125311_27989.png
efficientnet_l2_noisy_student_475,1,774,NaN,clock,knife,64-10-10,0774_eid_dnn_64-10-10_knife_10_n03041632_17091.png
efficientnet_l2_noisy_student_475,1,775,NaN,keyboard,keyboard,8-10-10,0775_eid_dnn_8-10-10_keyboard_10_n03085013_18785.png
efficientnet_l2_noisy_student_475,1,776,NaN,clock,clock,2-10-10,0776_eid_dnn_2-10-10_clock_10_n04548280_3610.png
efficientnet_l2_noisy_student_475,1,777,NaN,knife,knife,1-10-10,0777_eid_dnn_1-10-10_knife_10_n03041632_25656.png
efficientnet_l2_noisy_student_475,1,778,NaN,clock,clock,4-10-10,0778_eid_dnn_4-10-10_clock_10_n04548280_10183.png
efficientnet_l2_noisy_student_475,1,779,NaN,knife,cat,128-10-10,0779_eid_dnn_128-10-10_cat_10_n02123045_991.png
efficientnet_l2_noisy_student_475,1,780,NaN,boat,boat,2-10-10,0780_eid_dnn_2-10-10_boat_10_n03344393_12262.png
efficientnet_l2_noisy_student_475,1,781,NaN,elephant,cat,32-10-10,0781_eid_dnn_32-10-10_cat_10_n02125311_57758.png
efficientnet_l2_noisy_student_475,1,782,NaN,dog,dog,2-10-10,0782_eid_dnn_2-10-10_dog_10_n02110806_5427.png
efficientnet_l2_noisy_student_475,1,783,NaN,car,car,2-10-10,0783_eid_dnn_2-10-10_car_10_n02814533_9812.png
efficientnet_l2_noisy_student_475,1,784,NaN,clock,chair,16-10-10,0784_eid_dnn_16-10-10_chair_10_n04429376_13751.png
efficientnet_l2_noisy_student_475,1,785,NaN,knife,keyboard,128-10-10,0785_eid_dnn_128-10-10_keyboard_10_n03085013_3257.png
efficientnet_l2_noisy_student_475,1,786,NaN,knife,airplane,16-10-10,0786_eid_dnn_16-10-10_airplane_10_n02690373_4079.png
efficientnet_l2_noisy_student_475,1,787,NaN,knife,keyboard,128-10-10,0787_eid_dnn_128-10-10_keyboard_10_n03085013_24963.png
efficientnet_l2_noisy_student_475,1,788,NaN,knife,boat,32-10-10,0788_eid_dnn_32-10-10_boat_10_n03344393_6978.png
efficientnet_l2_noisy_student_475,1,789,NaN,clock,truck,64-10-10,0789_eid_dnn_64-10-10_truck_10_n03796401_10276.png
efficientnet_l2_noisy_student_475,1,790,NaN,clock,truck,8-10-10,0790_eid_dnn_8-10-10_truck_10_n03417042_19047.png
efficientnet_l2_noisy_student_475,1,791,NaN,clock,knife,64-10-10,0791_eid_dnn_64-10-10_knife_10_n03041632_55953.png
efficientnet_l2_noisy_student_475,1,792,NaN,bird,bird,4-10-10,0792_eid_dnn_4-10-10_bird_10_n01558993_4801.png
efficientnet_l2_noisy_student_475,1,793,NaN,elephant,bird,32-10-10,0793_eid_dnn_32-10-10_bird_10_n01824575_12101.png
efficientnet_l2_noisy_student_475,1,794,NaN,clock,oven,128-10-10,0794_eid_dnn_128-10-10_oven_10_n04111531_12769.png
efficientnet_l2_noisy_student_475,1,795,NaN,knife,bird,16-10-10,0795_eid_dnn_16-10-10_bird_10_n02009229_5090.png
efficientnet_l2_noisy_student_475,1,796,NaN,clock,dog,32-10-10,0796_eid_dnn_32-10-10_dog_10_n02102040_2743.png
efficientnet_l2_noisy_student_475,1,797,NaN,clock,clock,4-10-10,0797_eid_dnn_4-10-10_clock_10_n02708093_6673.png
efficientnet_l2_noisy_student_475,1,798,NaN,airplane,cat,16-10-10,0798_eid_dnn_16-10-10_cat_10_n02123159_6954.png
efficientnet_l2_noisy_student_475,1,799,NaN,clock,chair,32-10-10,0799_eid_dnn_32-10-10_chair_10_n04099969_25327.png
efficientnet_l2_noisy_student_475,1,800,NaN,elephant,truck,16-10-10,0800_eid_dnn_16-10-10_truck_10_n04467665_11776.png
efficientnet_l2_noisy_student_475,1,801,NaN,clock,knife,32-10-10,0801_eid_dnn_32-10-10_knife_10_n03041632_26340.png
efficientnet_l2_noisy_student_475,1,802,NaN,clock,oven,32-10-10,0802_eid_dnn_32-10-10_oven_10_n04111531_1362.png
efficientnet_l2_noisy_student_475,1,803,NaN,clock,bicycle,8-10-10,0803_eid_dnn_8-10-10_bicycle_10_n02835271_419.png
efficientnet_l2_noisy_student_475,1,804,NaN,bicycle,bicycle,2-10-10,0804_eid_dnn_2-10-10_bicycle_10_n03792782_11720.png
efficientnet_l2_noisy_student_475,1,805,NaN,elephant,elephant,4-10-10,0805_eid_dnn_4-10-10_elephant_10_n02504013_19769.png
efficientnet_l2_noisy_student_475,1,806,NaN,clock,keyboard,64-10-10,0806_eid_dnn_64-10-10_keyboard_10_n03085013_19891.png
efficientnet_l2_noisy_student_475,1,807,NaN,knife,airplane,64-10-10,0807_eid_dnn_64-10-10_airplane_10_n02690373_1862.png
efficientnet_l2_noisy_student_475,1,808,NaN,airplane,bird,16-10-10,0808_eid_dnn_16-10-10_bird_10_n01616318_8488.png
efficientnet_l2_noisy_student_475,1,809,NaN,knife,car,32-10-10,0809_eid_dnn_32-10-10_car_10_n03100240_20061.png
efficientnet_l2_noisy_student_475,1,810,NaN,chair,chair,4-10-10,0810_eid_dnn_4-10-10_chair_10_n04099969_17866.png
efficientnet_l2_noisy_student_475,1,811,NaN,elephant,elephant,8-10-10,0811_eid_dnn_8-10-10_elephant_10_n02504458_6931.png
efficientnet_l2_noisy_student_475,1,812,NaN,elephant,bear,16-10-10,0812_eid_dnn_16-10-10_bear_10_n02134418_2714.png
efficientnet_l2_noisy_student_475,1,813,NaN,clock,dog,32-10-10,0813_eid_dnn_32-10-10_dog_10_n02111277_21812.png
efficientnet_l2_noisy_student_475,1,814,NaN,clock,dog,16-10-10,0814_eid_dnn_16-10-10_dog_10_n02086646_7544.png
efficientnet_l2_noisy_student_475,1,815,NaN,boat,boat,16-10-10,0815_eid_dnn_16-10-10_boat_10_n02951358_33918.png
efficientnet_l2_noisy_student_475,1,816,NaN,knife,oven,16-10-10,0816_eid_dnn_16-10-10_oven_10_n04111531_7130.png
efficientnet_l2_noisy_student_475,1,817,NaN,clock,clock,32-10-10,0817_eid_dnn_32-10-10_clock_10_n04548280_5937.png
efficientnet_l2_noisy_student_475,1,818,NaN,airplane,bird,32-10-10,0818_eid_dnn_32-10-10_bird_10_n01819313_1422.png
efficientnet_l2_noisy_student_475,1,819,NaN,elephant,elephant,4-10-10,0819_eid_dnn_4-10-10_elephant_10_n02504458_7342.png
efficientnet_l2_noisy_student_475,1,820,NaN,clock,knife,128-10-10,0820_eid_dnn_128-10-10_knife_10_n03041632_7982.png
efficientnet_l2_noisy_student_475,1,821,NaN,airplane,airplane,8-10-10,0821_eid_dnn_8-10-10_airplane_10_n02690373_4586.png
efficientnet_l2_noisy_student_475,1,822,NaN,clock,clock,16-10-10,0822_eid_dnn_16-10-10_clock_10_n02708093_4255.png
efficientnet_l2_noisy_student_475,1,823,NaN,knife,oven,128-10-10,0823_eid_dnn_128-10-10_oven_10_n04111531_3191.png
efficientnet_l2_noisy_student_475,1,824,NaN,airplane,airplane,1-10-10,0824_eid_dnn_1-10-10_airplane_10_n02690373_5465.png
efficientnet_l2_noisy_student_475,1,825,NaN,clock,chair,64-10-10,0825_eid_dnn_64-10-10_chair_10_n02791124_373.png
efficientnet_l2_noisy_student_475,1,826,NaN,boat,boat,32-10-10,0826_eid_dnn_32-10-10_boat_10_n03662601_1158.png
efficientnet_l2_noisy_student_475,1,827,NaN,knife,elephant,64-10-10,0827_eid_dnn_64-10-10_elephant_10_n02504013_978.png
efficientnet_l2_noisy_student_475,1,828,NaN,clock,chair,32-10-10,0828_eid_dnn_32-10-10_chair_10_n02791124_6492.png
efficientnet_l2_noisy_student_475,1,829,NaN,car,car,1-10-10,0829_eid_dnn_1-10-10_car_10_n03100240_9892.png
efficientnet_l2_noisy_student_475,1,830,NaN,airplane,airplane,4-10-10,0830_eid_dnn_4-10-10_airplane_10_n02690373_1489.png
efficientnet_l2_noisy_student_475,1,831,NaN,clock,dog,128-10-10,0831_eid_dnn_128-10-10_dog_10_n02090622_7102.png
efficientnet_l2_noisy_student_475,1,832,NaN,boat,boat,2-10-10,0832_eid_dnn_2-10-10_boat_10_n04273569_72.png
efficientnet_l2_noisy_student_475,1,833,NaN,bicycle,bicycle,2-10-10,0833_eid_dnn_2-10-10_bicycle_10_n02835271_2625.png
efficientnet_l2_noisy_student_475,1,834,NaN,elephant,cat,64-10-10,0834_eid_dnn_64-10-10_cat_10_n02123159_15664.png
efficientnet_l2_noisy_student_475,1,835,NaN,clock,clock,1-10-10,0835_eid_dnn_1-10-10_clock_10_n04548280_4562.png
efficientnet_l2_noisy_student_475,1,836,NaN,bottle,bottle,2-10-10,0836_eid_dnn_2-10-10_bottle_10_n04591713_6905.png
efficientnet_l2_noisy_student_475,1,837,NaN,airplane,airplane,4-10-10,0837_eid_dnn_4-10-10_airplane_10_n02690373_166.png
efficientnet_l2_noisy_student_475,1,838,NaN,oven,oven,2-10-10,0838_eid_dnn_2-10-10_oven_10_n04111531_3193.png
efficientnet_l2_noisy_student_475,1,839,NaN,airplane,elephant,16-10-10,0839_eid_dnn_16-10-10_elephant_10_n02504458_5274.png
efficientnet_l2_noisy_student_475,1,840,NaN,clock,keyboard,64-10-10,0840_eid_dnn_64-10-10_keyboard_10_n04505470_5131.png
efficientnet_l2_noisy_student_475,1,841,NaN,airplane,airplane,2-10-10,0841_eid_dnn_2-10-10_airplane_10_n02690373_19074.png
efficientnet_l2_noisy_student_475,1,842,NaN,clock,bottle,64-10-10,0842_eid_dnn_64-10-10_bottle_10_n03983396_16257.png
efficientnet_l2_noisy_student_475,1,843,NaN,clock,bear,32-10-10,0843_eid_dnn_32-10-10_bear_10_n02134418_3470.png
efficientnet_l2_noisy_student_475,1,844,NaN,elephant,bear,8-10-10,0844_eid_dnn_8-10-10_bear_10_n02132136_3196.png
efficientnet_l2_noisy_student_475,1,845,NaN,knife,bear,128-10-10,0845_eid_dnn_128-10-10_bear_10_n02133161_10184.png
efficientnet_l2_noisy_student_475,1,846,NaN,knife,truck,128-10-10,0846_eid_dnn_128-10-10_truck_10_n03417042_3351.png
efficientnet_l2_noisy_student_475,1,847,NaN,knife,bird,128-10-10,0847_eid_dnn_128-10-10_bird_10_n02013706_6676.png
efficientnet_l2_noisy_student_475,1,848,NaN,clock,airplane,128-10-10,0848_eid_dnn_128-10-10_airplane_10_n02690373_9946.png
efficientnet_l2_noisy_student_475,1,849,NaN,clock,car,32-10-10,0849_eid_dnn_32-10-10_car_10_n04285008_8838.png
efficientnet_l2_noisy_student_475,1,850,NaN,knife,car,128-10-10,0850_eid_dnn_128-10-10_car_10_n02814533_40350.png
efficientnet_l2_noisy_student_475,1,851,NaN,cat,cat,1-10-10,0851_eid_dnn_1-10-10_cat_10_n02123159_12734.png
efficientnet_l2_noisy_student_475,1,852,NaN,airplane,airplane,2-10-10,0852_eid_dnn_2-10-10_airplane_10_n02690373_17063.png
efficientnet_l2_noisy_student_475,1,853,NaN,bottle,bottle,4-10-10,0853_eid_dnn_4-10-10_bottle_10_n04560804_31443.png
efficientnet_l2_noisy_student_475,1,854,NaN,keyboard,keyboard,2-10-10,0854_eid_dnn_2-10-10_keyboard_10_n03085013_22713.png
efficientnet_l2_noisy_student_475,1,855,NaN,truck,truck,1-10-10,0855_eid_dnn_1-10-10_truck_10_n04467665_21969.png
efficientnet_l2_noisy_student_475,1,856,NaN,airplane,bear,16-10-10,0856_eid_dnn_16-10-10_bear_10_n02134084_712.png
efficientnet_l2_noisy_student_475,1,857,NaN,clock,oven,128-10-10,0857_eid_dnn_128-10-10_oven_10_n04111531_15635.png
efficientnet_l2_noisy_student_475,1,858,NaN,knife,keyboard,128-10-10,0858_eid_dnn_128-10-10_keyboard_10_n03085013_5568.png
efficientnet_l2_noisy_student_475,1,859,NaN,elephant,chair,128-10-10,0859_eid_dnn_128-10-10_chair_10_n02791124_1059.png
efficientnet_l2_noisy_student_475,1,860,NaN,airplane,airplane,4-10-10,0860_eid_dnn_4-10-10_airplane_10_n02690373_4866.png
efficientnet_l2_noisy_student_475,1,861,NaN,knife,dog,128-10-10,0861_eid_dnn_128-10-10_dog_10_n02086910_13835.png
efficientnet_l2_noisy_student_475,1,862,NaN,knife,knife,1-10-10,0862_eid_dnn_1-10-10_knife_10_n03041632_9488.png
