subj,session,trial,rt,object_response,category,condition,imagename
barlow_twins,1,1,NaN,oven,oven,1-10-10,0001_eid_dnn_1-10-10_oven_10_n04111531_17072.png
barlow_twins,1,2,NaN,truck,airplane,16-10-10,0002_eid_dnn_16-10-10_airplane_10_n02690373_4183.png
barlow_twins,1,3,NaN,airplane,car,8-10-10,0003_eid_dnn_8-10-10_car_10_n03100240_1137.png
barlow_twins,1,4,NaN,oven,clock,2-10-10,0004_eid_dnn_2-10-10_clock_10_n04548280_7083.png
barlow_twins,1,5,NaN,knife,bottle,2-10-10,0005_eid_dnn_2-10-10_bottle_10_n02823428_7810.png
barlow_twins,1,6,NaN,elephant,dog,128-10-10,0006_eid_dnn_128-10-10_dog_10_n02091244_8368.png
barlow_twins,1,7,NaN,airplane,bicycle,1-10-10,0007_eid_dnn_1-10-10_bicycle_10_n02835271_2930.png
barlow_twins,1,8,NaN,chair,knife,4-10-10,0008_eid_dnn_4-10-10_knife_10_n03041632_52848.png
barlow_twins,1,9,NaN,oven,bottle,2-10-10,0009_eid_dnn_2-10-10_bottle_10_n02823428_4097.png
barlow_twins,1,10,NaN,elephant,dog,8-10-10,0010_eid_dnn_8-10-10_dog_10_n02105641_10264.png
barlow_twins,1,11,NaN,car,boat,8-10-10,0011_eid_dnn_8-10-10_boat_10_n03662601_10278.png
barlow_twins,1,12,NaN,car,truck,32-10-10,0012_eid_dnn_32-10-10_truck_10_n04467665_76958.png
barlow_twins,1,13,NaN,car,dog,16-10-10,0013_eid_dnn_16-10-10_dog_10_n02088238_12552.png
barlow_twins,1,14,NaN,bottle,dog,8-10-10,0014_eid_dnn_8-10-10_dog_10_n02102040_994.png
barlow_twins,1,15,NaN,airplane,bear,128-10-10,0015_eid_dnn_128-10-10_bear_10_n02133161_1944.png
barlow_twins,1,16,NaN,bottle,car,16-10-10,0016_eid_dnn_16-10-10_car_10_n02814533_43040.png
barlow_twins,1,17,NaN,airplane,oven,128-10-10,0017_eid_dnn_128-10-10_oven_10_n04111531_18592.png
barlow_twins,1,18,NaN,airplane,chair,16-10-10,0018_eid_dnn_16-10-10_chair_10_n02791124_4294.png
barlow_twins,1,19,NaN,airplane,knife,32-10-10,0019_eid_dnn_32-10-10_knife_10_n03041632_2630.png
barlow_twins,1,20,NaN,knife,elephant,1-10-10,0020_eid_dnn_1-10-10_elephant_10_n02504458_723.png
barlow_twins,1,21,NaN,elephant,chair,4-10-10,0021_eid_dnn_4-10-10_chair_10_n03376595_6107.png
barlow_twins,1,22,NaN,airplane,clock,32-10-10,0022_eid_dnn_32-10-10_clock_10_n03196217_1337.png
barlow_twins,1,23,NaN,elephant,boat,128-10-10,0023_eid_dnn_128-10-10_boat_10_n02951358_9550.png
barlow_twins,1,24,NaN,airplane,bird,128-10-10,0024_eid_dnn_128-10-10_bird_10_n01616318_2334.png
barlow_twins,1,25,NaN,car,bottle,32-10-10,0025_eid_dnn_32-10-10_bottle_10_n03937543_1658.png
barlow_twins,1,26,NaN,oven,elephant,2-10-10,0026_eid_dnn_2-10-10_elephant_10_n02504013_6731.png
barlow_twins,1,27,NaN,airplane,keyboard,4-10-10,0027_eid_dnn_4-10-10_keyboard_10_n04505470_4447.png
barlow_twins,1,28,NaN,keyboard,airplane,1-10-10,0028_eid_dnn_1-10-10_airplane_10_n02690373_4839.png
barlow_twins,1,29,NaN,airplane,keyboard,64-10-10,0029_eid_dnn_64-10-10_keyboard_10_n04505470_1651.png
barlow_twins,1,30,NaN,truck,keyboard,32-10-10,0030_eid_dnn_32-10-10_keyboard_10_n03085013_20601.png
barlow_twins,1,31,NaN,airplane,airplane,64-10-10,0031_eid_dnn_64-10-10_airplane_10_n02690373_2217.png
barlow_twins,1,32,NaN,elephant,bicycle,4-10-10,0032_eid_dnn_4-10-10_bicycle_10_n03792782_25019.png
barlow_twins,1,33,NaN,knife,cat,8-10-10,0033_eid_dnn_8-10-10_cat_10_n02123597_13890.png
barlow_twins,1,34,NaN,knife,boat,1-10-10,0034_eid_dnn_1-10-10_boat_10_n04612504_214.png
barlow_twins,1,35,NaN,airplane,chair,128-10-10,0035_eid_dnn_128-10-10_chair_10_n02791124_2555.png
barlow_twins,1,36,NaN,clock,car,4-10-10,0036_eid_dnn_4-10-10_car_10_n04285008_2081.png
barlow_twins,1,37,NaN,car,dog,32-10-10,0037_eid_dnn_32-10-10_dog_10_n02094114_8202.png
barlow_twins,1,38,NaN,airplane,chair,64-10-10,0038_eid_dnn_64-10-10_chair_10_n04099969_4541.png
barlow_twins,1,39,NaN,elephant,boat,128-10-10,0039_eid_dnn_128-10-10_boat_10_n04612504_12864.png
barlow_twins,1,40,NaN,elephant,airplane,4-10-10,0040_eid_dnn_4-10-10_airplane_10_n02690373_18460.png
barlow_twins,1,41,NaN,bottle,bottle,64-10-10,0041_eid_dnn_64-10-10_bottle_10_n03983396_8982.png
barlow_twins,1,42,NaN,elephant,dog,16-10-10,0042_eid_dnn_16-10-10_dog_10_n02099601_10407.png
barlow_twins,1,43,NaN,airplane,airplane,32-10-10,0043_eid_dnn_32-10-10_airplane_10_n02690373_5253.png
barlow_twins,1,44,NaN,oven,elephant,2-10-10,0044_eid_dnn_2-10-10_elephant_10_n02504013_2832.png
barlow_twins,1,45,NaN,oven,clock,1-10-10,0045_eid_dnn_1-10-10_clock_10_n02708093_8002.png
barlow_twins,1,46,NaN,elephant,chair,2-10-10,0046_eid_dnn_2-10-10_chair_10_n03376595_1766.png
barlow_twins,1,47,NaN,knife,truck,2-10-10,0047_eid_dnn_2-10-10_truck_10_n03417042_17616.png
barlow_twins,1,48,NaN,keyboard,bear,16-10-10,0048_eid_dnn_16-10-10_bear_10_n02134418_2804.png
barlow_twins,1,49,NaN,airplane,car,64-10-10,0049_eid_dnn_64-10-10_car_10_n04285008_12101.png
barlow_twins,1,50,NaN,bottle,bear,16-10-10,0050_eid_dnn_16-10-10_bear_10_n02134418_3828.png
barlow_twins,1,51,NaN,oven,bird,2-10-10,0051_eid_dnn_2-10-10_bird_10_n01530575_5747.png
barlow_twins,1,52,NaN,airplane,truck,128-10-10,0052_eid_dnn_128-10-10_truck_10_n03796401_3386.png
barlow_twins,1,53,NaN,airplane,keyboard,16-10-10,0053_eid_dnn_16-10-10_keyboard_10_n04505470_3234.png
barlow_twins,1,54,NaN,car,truck,1-10-10,0054_eid_dnn_1-10-10_truck_10_n04467665_72639.png
barlow_twins,1,55,NaN,airplane,chair,32-10-10,0055_eid_dnn_32-10-10_chair_10_n04429376_27524.png
barlow_twins,1,56,NaN,airplane,bottle,64-10-10,0056_eid_dnn_64-10-10_bottle_10_n04557648_11440.png
barlow_twins,1,57,NaN,airplane,keyboard,32-10-10,0057_eid_dnn_32-10-10_keyboard_10_n03085013_20216.png
barlow_twins,1,58,NaN,keyboard,boat,8-10-10,0058_eid_dnn_8-10-10_boat_10_n02951358_34653.png
barlow_twins,1,59,NaN,airplane,keyboard,2-10-10,0059_eid_dnn_2-10-10_keyboard_10_n03085013_8932.png
barlow_twins,1,60,NaN,oven,cat,1-10-10,0060_eid_dnn_1-10-10_cat_10_n02125311_35338.png
barlow_twins,1,61,NaN,airplane,bicycle,16-10-10,0061_eid_dnn_16-10-10_bicycle_10_n03792782_5449.png
barlow_twins,1,62,NaN,keyboard,bicycle,4-10-10,0062_eid_dnn_4-10-10_bicycle_10_n03792782_9432.png
barlow_twins,1,63,NaN,knife,bottle,1-10-10,0063_eid_dnn_1-10-10_bottle_10_n04591713_4291.png
barlow_twins,1,64,NaN,elephant,truck,4-10-10,0064_eid_dnn_4-10-10_truck_10_n04467665_67057.png
barlow_twins,1,65,NaN,oven,keyboard,1-10-10,0065_eid_dnn_1-10-10_keyboard_10_n03085013_22790.png
barlow_twins,1,66,NaN,elephant,dog,4-10-10,0066_eid_dnn_4-10-10_dog_10_n02086079_2896.png
barlow_twins,1,67,NaN,oven,knife,8-10-10,0067_eid_dnn_8-10-10_knife_10_n03041632_40508.png
barlow_twins,1,68,NaN,knife,boat,1-10-10,0068_eid_dnn_1-10-10_boat_10_n03344393_7942.png
barlow_twins,1,69,NaN,elephant,bear,2-10-10,0069_eid_dnn_2-10-10_bear_10_n02134418_4352.png
barlow_twins,1,70,NaN,airplane,cat,16-10-10,0070_eid_dnn_16-10-10_cat_10_n02123045_5157.png
barlow_twins,1,71,NaN,car,dog,16-10-10,0071_eid_dnn_16-10-10_dog_10_n02109047_14287.png
barlow_twins,1,72,NaN,airplane,truck,2-10-10,0072_eid_dnn_2-10-10_truck_10_n03417042_14274.png
barlow_twins,1,73,NaN,elephant,airplane,2-10-10,0073_eid_dnn_2-10-10_airplane_10_n02690373_5885.png
barlow_twins,1,74,NaN,bottle,cat,32-10-10,0074_eid_dnn_32-10-10_cat_10_n02123394_571.png
barlow_twins,1,75,NaN,car,cat,32-10-10,0075_eid_dnn_32-10-10_cat_10_n02123045_10171.png
barlow_twins,1,76,NaN,car,bottle,8-10-10,0076_eid_dnn_8-10-10_bottle_10_n04560804_4909.png
barlow_twins,1,77,NaN,airplane,keyboard,8-10-10,0077_eid_dnn_8-10-10_keyboard_10_n03085013_7971.png
barlow_twins,1,78,NaN,car,keyboard,16-10-10,0078_eid_dnn_16-10-10_keyboard_10_n03085013_21397.png
barlow_twins,1,79,NaN,airplane,elephant,32-10-10,0079_eid_dnn_32-10-10_elephant_10_n02504458_4187.png
barlow_twins,1,80,NaN,elephant,clock,8-10-10,0080_eid_dnn_8-10-10_clock_10_n03196217_6689.png
barlow_twins,1,81,NaN,oven,knife,4-10-10,0081_eid_dnn_4-10-10_knife_10_n03041632_26236.png
barlow_twins,1,82,NaN,keyboard,car,8-10-10,0082_eid_dnn_8-10-10_car_10_n03100240_1262.png
barlow_twins,1,83,NaN,car,keyboard,64-10-10,0083_eid_dnn_64-10-10_keyboard_10_n04505470_5059.png
barlow_twins,1,84,NaN,oven,bird,1-10-10,0084_eid_dnn_1-10-10_bird_10_n01537544_26417.png
barlow_twins,1,85,NaN,car,bird,32-10-10,0085_eid_dnn_32-10-10_bird_10_n02009912_5714.png
barlow_twins,1,86,NaN,airplane,chair,128-10-10,0086_eid_dnn_128-10-10_chair_10_n03376595_5972.png
barlow_twins,1,87,NaN,oven,chair,2-10-10,0087_eid_dnn_2-10-10_chair_10_n04429376_805.png
barlow_twins,1,88,NaN,knife,bicycle,128-10-10,0088_eid_dnn_128-10-10_bicycle_10_n03792782_4083.png
barlow_twins,1,89,NaN,knife,clock,1-10-10,0089_eid_dnn_1-10-10_clock_10_n02708093_798.png
barlow_twins,1,90,NaN,elephant,bear,1-10-10,0090_eid_dnn_1-10-10_bear_10_n02133161_1660.png
barlow_twins,1,91,NaN,elephant,car,8-10-10,0091_eid_dnn_8-10-10_car_10_n04285008_9464.png
barlow_twins,1,92,NaN,car,oven,16-10-10,0092_eid_dnn_16-10-10_oven_10_n04111531_3314.png
barlow_twins,1,93,NaN,elephant,cat,128-10-10,0093_eid_dnn_128-10-10_cat_10_n02123394_5753.png
barlow_twins,1,94,NaN,keyboard,boat,2-10-10,0094_eid_dnn_2-10-10_boat_10_n02951358_34042.png
barlow_twins,1,95,NaN,car,truck,64-10-10,0095_eid_dnn_64-10-10_truck_10_n03417042_7588.png
barlow_twins,1,96,NaN,airplane,truck,32-10-10,0096_eid_dnn_32-10-10_truck_10_n03417042_4200.png
barlow_twins,1,97,NaN,truck,airplane,4-10-10,0097_eid_dnn_4-10-10_airplane_10_n02690373_4335.png
barlow_twins,1,98,NaN,airplane,elephant,128-10-10,0098_eid_dnn_128-10-10_elephant_10_n02504458_6823.png
barlow_twins,1,99,NaN,knife,boat,4-10-10,0099_eid_dnn_4-10-10_boat_10_n03344393_4214.png
barlow_twins,1,100,NaN,airplane,keyboard,4-10-10,0100_eid_dnn_4-10-10_keyboard_10_n03085013_22949.png
barlow_twins,1,101,NaN,car,bear,64-10-10,0101_eid_dnn_64-10-10_bear_10_n02132136_31664.png
barlow_twins,1,102,NaN,elephant,bottle,8-10-10,0102_eid_dnn_8-10-10_bottle_10_n03983396_1985.png
barlow_twins,1,103,NaN,keyboard,airplane,2-10-10,0103_eid_dnn_2-10-10_airplane_10_n02690373_9266.png
barlow_twins,1,104,NaN,car,bottle,128-10-10,0104_eid_dnn_128-10-10_bottle_10_n02823428_5961.png
barlow_twins,1,105,NaN,elephant,bottle,4-10-10,0105_eid_dnn_4-10-10_bottle_10_n04579145_1856.png
barlow_twins,1,106,NaN,airplane,clock,64-10-10,0106_eid_dnn_64-10-10_clock_10_n02708093_7810.png
barlow_twins,1,107,NaN,elephant,dog,1-10-10,0107_eid_dnn_1-10-10_dog_10_n02100735_4949.png
barlow_twins,1,108,NaN,car,chair,32-10-10,0108_eid_dnn_32-10-10_chair_10_n03376595_7275.png
barlow_twins,1,109,NaN,oven,bottle,2-10-10,0109_eid_dnn_2-10-10_bottle_10_n03983396_16741.png
barlow_twins,1,110,NaN,airplane,boat,32-10-10,0110_eid_dnn_32-10-10_boat_10_n04612504_8719.png
barlow_twins,1,111,NaN,knife,chair,1-10-10,0111_eid_dnn_1-10-10_chair_10_n02791124_3570.png
barlow_twins,1,112,NaN,airplane,bear,32-10-10,0112_eid_dnn_32-10-10_bear_10_n02132136_9557.png
barlow_twins,1,113,NaN,car,bird,64-10-10,0113_eid_dnn_64-10-10_bird_10_n02002556_5730.png
barlow_twins,1,114,NaN,oven,oven,4-10-10,0114_eid_dnn_4-10-10_oven_10_n04111531_8959.png
barlow_twins,1,115,NaN,elephant,cat,128-10-10,0115_eid_dnn_128-10-10_cat_10_n02123159_8101.png
barlow_twins,1,116,NaN,oven,cat,8-10-10,0116_eid_dnn_8-10-10_cat_10_n02123597_8890.png
barlow_twins,1,117,NaN,knife,elephant,1-10-10,0117_eid_dnn_1-10-10_elephant_10_n02504458_220.png
barlow_twins,1,118,NaN,car,bicycle,128-10-10,0118_eid_dnn_128-10-10_bicycle_10_n02835271_2651.png
barlow_twins,1,119,NaN,airplane,keyboard,64-10-10,0119_eid_dnn_64-10-10_keyboard_10_n04505470_1581.png
barlow_twins,1,120,NaN,car,truck,4-10-10,0120_eid_dnn_4-10-10_truck_10_n04467665_1719.png
barlow_twins,1,121,NaN,airplane,truck,2-10-10,0121_eid_dnn_2-10-10_truck_10_n04467665_30756.png
barlow_twins,1,122,NaN,car,oven,64-10-10,0122_eid_dnn_64-10-10_oven_10_n04111531_1818.png
barlow_twins,1,123,NaN,elephant,elephant,64-10-10,0123_eid_dnn_64-10-10_elephant_10_n02504013_2974.png
barlow_twins,1,124,NaN,airplane,bicycle,128-10-10,0124_eid_dnn_128-10-10_bicycle_10_n03792782_7713.png
barlow_twins,1,125,NaN,knife,clock,16-10-10,0125_eid_dnn_16-10-10_clock_10_n04548280_9700.png
barlow_twins,1,126,NaN,airplane,bottle,16-10-10,0126_eid_dnn_16-10-10_bottle_10_n04591713_1174.png
barlow_twins,1,127,NaN,elephant,bear,64-10-10,0127_eid_dnn_64-10-10_bear_10_n02134418_1395.png
barlow_twins,1,128,NaN,car,bottle,128-10-10,0128_eid_dnn_128-10-10_bottle_10_n04591713_36.png
barlow_twins,1,129,NaN,keyboard,knife,8-10-10,0129_eid_dnn_8-10-10_knife_10_n03041632_21034.png
barlow_twins,1,130,NaN,car,bicycle,1-10-10,0130_eid_dnn_1-10-10_bicycle_10_n03792782_11115.png
barlow_twins,1,131,NaN,elephant,truck,16-10-10,0131_eid_dnn_16-10-10_truck_10_n03417042_5381.png
barlow_twins,1,132,NaN,airplane,boat,64-10-10,0132_eid_dnn_64-10-10_boat_10_n04612504_15258.png
barlow_twins,1,133,NaN,car,boat,2-10-10,0133_eid_dnn_2-10-10_boat_10_n03662601_11972.png
barlow_twins,1,134,NaN,airplane,dog,64-10-10,0134_eid_dnn_64-10-10_dog_10_n02092002_11459.png
barlow_twins,1,135,NaN,airplane,clock,64-10-10,0135_eid_dnn_64-10-10_clock_10_n04548280_6605.png
barlow_twins,1,136,NaN,elephant,boat,64-10-10,0136_eid_dnn_64-10-10_boat_10_n03662601_5600.png
barlow_twins,1,137,NaN,bottle,bear,32-10-10,0137_eid_dnn_32-10-10_bear_10_n02134084_8153.png
barlow_twins,1,138,NaN,bottle,cat,64-10-10,0138_eid_dnn_64-10-10_cat_10_n02124075_9225.png
barlow_twins,1,139,NaN,bottle,bicycle,8-10-10,0139_eid_dnn_8-10-10_bicycle_10_n03792782_3591.png
barlow_twins,1,140,NaN,keyboard,dog,64-10-10,0140_eid_dnn_64-10-10_dog_10_n02107142_31661.png
barlow_twins,1,141,NaN,elephant,elephant,8-10-10,0141_eid_dnn_8-10-10_elephant_10_n02504458_651.png
barlow_twins,1,142,NaN,airplane,dog,128-10-10,0142_eid_dnn_128-10-10_dog_10_n02110958_15217.png
barlow_twins,1,143,NaN,elephant,oven,4-10-10,0143_eid_dnn_4-10-10_oven_10_n04111531_523.png
barlow_twins,1,144,NaN,car,car,4-10-10,0144_eid_dnn_4-10-10_car_10_n02814533_42884.png
barlow_twins,1,145,NaN,airplane,car,64-10-10,0145_eid_dnn_64-10-10_car_10_n04285008_8017.png
barlow_twins,1,146,NaN,car,car,1-10-10,0146_eid_dnn_1-10-10_car_10_n03100240_16766.png
barlow_twins,1,147,NaN,oven,elephant,8-10-10,0147_eid_dnn_8-10-10_elephant_10_n02504458_4593.png
barlow_twins,1,148,NaN,keyboard,chair,64-10-10,0148_eid_dnn_64-10-10_chair_10_n02791124_1358.png
barlow_twins,1,149,NaN,car,dog,16-10-10,0149_eid_dnn_16-10-10_dog_10_n02095314_5363.png
barlow_twins,1,150,NaN,elephant,clock,8-10-10,0150_eid_dnn_8-10-10_clock_10_n04548280_1413.png
barlow_twins,1,151,NaN,bear,dog,1-10-10,0151_eid_dnn_1-10-10_dog_10_n02105641_10948.png
barlow_twins,1,152,NaN,knife,dog,1-10-10,0152_eid_dnn_1-10-10_dog_10_n02113624_1691.png
barlow_twins,1,153,NaN,airplane,car,4-10-10,0153_eid_dnn_4-10-10_car_10_n03100240_2235.png
barlow_twins,1,154,NaN,knife,chair,2-10-10,0154_eid_dnn_2-10-10_chair_10_n04099969_56470.png
barlow_twins,1,155,NaN,airplane,oven,2-10-10,0155_eid_dnn_2-10-10_oven_10_n04111531_5429.png
barlow_twins,1,156,NaN,car,keyboard,64-10-10,0156_eid_dnn_64-10-10_keyboard_10_n03085013_19317.png
barlow_twins,1,157,NaN,keyboard,bird,64-10-10,0157_eid_dnn_64-10-10_bird_10_n01601694_19650.png
barlow_twins,1,158,NaN,bottle,clock,128-10-10,0158_eid_dnn_128-10-10_clock_10_n03196217_11199.png
barlow_twins,1,159,NaN,bottle,bottle,32-10-10,0159_eid_dnn_32-10-10_bottle_10_n03937543_2209.png
barlow_twins,1,160,NaN,airplane,car,64-10-10,0160_eid_dnn_64-10-10_car_10_n03100240_16939.png
barlow_twins,1,161,NaN,airplane,bottle,8-10-10,0161_eid_dnn_8-10-10_bottle_10_n04591713_2501.png
barlow_twins,1,162,NaN,airplane,airplane,16-10-10,0162_eid_dnn_16-10-10_airplane_10_n02690373_10395.png
barlow_twins,1,163,NaN,airplane,oven,8-10-10,0163_eid_dnn_8-10-10_oven_10_n04111531_3286.png
barlow_twins,1,164,NaN,airplane,boat,64-10-10,0164_eid_dnn_64-10-10_boat_10_n04273569_13401.png
barlow_twins,1,165,NaN,airplane,elephant,64-10-10,0165_eid_dnn_64-10-10_elephant_10_n02504458_12776.png
barlow_twins,1,166,NaN,keyboard,bird,2-10-10,0166_eid_dnn_2-10-10_bird_10_n01828970_997.png
barlow_twins,1,167,NaN,bottle,bear,8-10-10,0167_eid_dnn_8-10-10_bear_10_n02132136_10318.png
barlow_twins,1,168,NaN,airplane,oven,32-10-10,0168_eid_dnn_32-10-10_oven_10_n04111531_7883.png
barlow_twins,1,169,NaN,elephant,clock,128-10-10,0169_eid_dnn_128-10-10_clock_10_n02708093_725.png
barlow_twins,1,170,NaN,car,bottle,16-10-10,0170_eid_dnn_16-10-10_bottle_10_n04557648_2052.png
barlow_twins,1,171,NaN,airplane,keyboard,32-10-10,0171_eid_dnn_32-10-10_keyboard_10_n04505470_5036.png
barlow_twins,1,172,NaN,keyboard,elephant,8-10-10,0172_eid_dnn_8-10-10_elephant_10_n02504458_13352.png
barlow_twins,1,173,NaN,oven,chair,4-10-10,0173_eid_dnn_4-10-10_chair_10_n04429376_30620.png
barlow_twins,1,174,NaN,car,boat,16-10-10,0174_eid_dnn_16-10-10_boat_10_n03662601_2980.png
barlow_twins,1,175,NaN,truck,boat,8-10-10,0175_eid_dnn_8-10-10_boat_10_n03662601_4734.png
barlow_twins,1,176,NaN,elephant,bear,2-10-10,0176_eid_dnn_2-10-10_bear_10_n02134418_4754.png
barlow_twins,1,177,NaN,airplane,elephant,2-10-10,0177_eid_dnn_2-10-10_elephant_10_n02504013_8522.png
barlow_twins,1,178,NaN,airplane,bottle,64-10-10,0178_eid_dnn_64-10-10_bottle_10_n03937543_4863.png
barlow_twins,1,179,NaN,airplane,car,16-10-10,0179_eid_dnn_16-10-10_car_10_n04285008_10802.png
barlow_twins,1,180,NaN,airplane,knife,64-10-10,0180_eid_dnn_64-10-10_knife_10_n03041632_6708.png
barlow_twins,1,181,NaN,oven,dog,1-10-10,0181_eid_dnn_1-10-10_dog_10_n02107142_61109.png
barlow_twins,1,182,NaN,oven,clock,2-10-10,0182_eid_dnn_2-10-10_clock_10_n03196217_8139.png
barlow_twins,1,183,NaN,oven,elephant,1-10-10,0183_eid_dnn_1-10-10_elephant_10_n02504458_6611.png
barlow_twins,1,184,NaN,car,truck,64-10-10,0184_eid_dnn_64-10-10_truck_10_n04467665_4401.png
barlow_twins,1,185,NaN,knife,boat,4-10-10,0185_eid_dnn_4-10-10_boat_10_n03344393_732.png
barlow_twins,1,186,NaN,oven,knife,4-10-10,0186_eid_dnn_4-10-10_knife_10_n03041632_41381.png
barlow_twins,1,187,NaN,airplane,oven,32-10-10,0187_eid_dnn_32-10-10_oven_10_n04111531_22715.png
barlow_twins,1,188,NaN,airplane,cat,16-10-10,0188_eid_dnn_16-10-10_cat_10_n02123045_3568.png
barlow_twins,1,189,NaN,elephant,truck,2-10-10,0189_eid_dnn_2-10-10_truck_10_n03796401_18976.png
barlow_twins,1,190,NaN,car,oven,8-10-10,0190_eid_dnn_8-10-10_oven_10_n04111531_15710.png
barlow_twins,1,191,NaN,car,elephant,32-10-10,0191_eid_dnn_32-10-10_elephant_10_n02504013_7232.png
barlow_twins,1,192,NaN,elephant,clock,64-10-10,0192_eid_dnn_64-10-10_clock_10_n02708093_5126.png
barlow_twins,1,193,NaN,airplane,cat,32-10-10,0193_eid_dnn_32-10-10_cat_10_n02123159_1598.png
barlow_twins,1,194,NaN,knife,car,1-10-10,0194_eid_dnn_1-10-10_car_10_n04285008_1661.png
barlow_twins,1,195,NaN,oven,clock,2-10-10,0195_eid_dnn_2-10-10_clock_10_n02708093_5551.png
barlow_twins,1,196,NaN,elephant,airplane,128-10-10,0196_eid_dnn_128-10-10_airplane_10_n02690373_693.png
barlow_twins,1,197,NaN,oven,elephant,2-10-10,0197_eid_dnn_2-10-10_elephant_10_n02504013_3409.png
barlow_twins,1,198,NaN,car,dog,64-10-10,0198_eid_dnn_64-10-10_dog_10_n02113712_8182.png
barlow_twins,1,199,NaN,oven,bottle,1-10-10,0199_eid_dnn_1-10-10_bottle_10_n03983396_8322.png
barlow_twins,1,200,NaN,knife,keyboard,64-10-10,0200_eid_dnn_64-10-10_keyboard_10_n04505470_1040.png
barlow_twins,1,201,NaN,airplane,oven,32-10-10,0201_eid_dnn_32-10-10_oven_10_n04111531_11230.png
barlow_twins,1,202,NaN,cat,cat,1-10-10,0202_eid_dnn_1-10-10_cat_10_n02123394_6269.png
barlow_twins,1,203,NaN,elephant,elephant,2-10-10,0203_eid_dnn_2-10-10_elephant_10_n02504013_2075.png
barlow_twins,1,204,NaN,oven,bear,1-10-10,0204_eid_dnn_1-10-10_bear_10_n02133161_3795.png
barlow_twins,1,205,NaN,oven,oven,2-10-10,0205_eid_dnn_2-10-10_oven_10_n04111531_4322.png
barlow_twins,1,206,NaN,oven,bottle,4-10-10,0206_eid_dnn_4-10-10_bottle_10_n03937543_5799.png
barlow_twins,1,207,NaN,cat,keyboard,8-10-10,0207_eid_dnn_8-10-10_keyboard_10_n04505470_4414.png
barlow_twins,1,208,NaN,elephant,dog,4-10-10,0208_eid_dnn_4-10-10_dog_10_n02091032_8315.png
barlow_twins,1,209,NaN,elephant,knife,2-10-10,0209_eid_dnn_2-10-10_knife_10_n03041632_39952.png
barlow_twins,1,210,NaN,car,chair,8-10-10,0210_eid_dnn_8-10-10_chair_10_n02791124_634.png
barlow_twins,1,211,NaN,keyboard,boat,32-10-10,0211_eid_dnn_32-10-10_boat_10_n03344393_3355.png
barlow_twins,1,212,NaN,elephant,dog,32-10-10,0212_eid_dnn_32-10-10_dog_10_n02102040_7188.png
barlow_twins,1,213,NaN,airplane,chair,2-10-10,0213_eid_dnn_2-10-10_chair_10_n02791124_8711.png
barlow_twins,1,214,NaN,car,bear,64-10-10,0214_eid_dnn_64-10-10_bear_10_n02132136_6002.png
barlow_twins,1,215,NaN,elephant,boat,4-10-10,0215_eid_dnn_4-10-10_boat_10_n02951358_30184.png
barlow_twins,1,216,NaN,airplane,bottle,128-10-10,0216_eid_dnn_128-10-10_bottle_10_n02823428_3414.png
barlow_twins,1,217,NaN,truck,truck,4-10-10,0217_eid_dnn_4-10-10_truck_10_n04467665_13231.png
barlow_twins,1,218,NaN,oven,chair,4-10-10,0218_eid_dnn_4-10-10_chair_10_n04099969_8063.png
barlow_twins,1,219,NaN,oven,bird,4-10-10,0219_eid_dnn_4-10-10_bird_10_n01534433_10234.png
barlow_twins,1,220,NaN,elephant,elephant,4-10-10,0220_eid_dnn_4-10-10_elephant_10_n02504013_12533.png
barlow_twins,1,221,NaN,bottle,knife,16-10-10,0221_eid_dnn_16-10-10_knife_10_n03041632_18995.png
barlow_twins,1,222,NaN,airplane,chair,32-10-10,0222_eid_dnn_32-10-10_chair_10_n04429376_7123.png
barlow_twins,1,223,NaN,airplane,clock,64-10-10,0223_eid_dnn_64-10-10_clock_10_n03196217_9065.png
barlow_twins,1,224,NaN,knife,dog,4-10-10,0224_eid_dnn_4-10-10_dog_10_n02086079_4143.png
barlow_twins,1,225,NaN,oven,bear,4-10-10,0225_eid_dnn_4-10-10_bear_10_n02132136_20162.png
barlow_twins,1,226,NaN,bear,bottle,1-10-10,0226_eid_dnn_1-10-10_bottle_10_n03983396_4165.png
barlow_twins,1,227,NaN,oven,bird,4-10-10,0227_eid_dnn_4-10-10_bird_10_n01824575_4470.png
barlow_twins,1,228,NaN,airplane,oven,64-10-10,0228_eid_dnn_64-10-10_oven_10_n04111531_9695.png
barlow_twins,1,229,NaN,elephant,bottle,64-10-10,0229_eid_dnn_64-10-10_bottle_10_n02823428_23181.png
barlow_twins,1,230,NaN,car,bicycle,2-10-10,0230_eid_dnn_2-10-10_bicycle_10_n02835271_13674.png
barlow_twins,1,231,NaN,elephant,chair,2-10-10,0231_eid_dnn_2-10-10_chair_10_n04429376_55747.png
barlow_twins,1,232,NaN,airplane,boat,32-10-10,0232_eid_dnn_32-10-10_boat_10_n02951358_8346.png
barlow_twins,1,233,NaN,elephant,elephant,16-10-10,0233_eid_dnn_16-10-10_elephant_10_n02504013_1088.png
barlow_twins,1,234,NaN,car,car,8-10-10,0234_eid_dnn_8-10-10_car_10_n03100240_11191.png
barlow_twins,1,235,NaN,elephant,chair,8-10-10,0235_eid_dnn_8-10-10_chair_10_n04099969_19966.png
barlow_twins,1,236,NaN,bottle,bicycle,32-10-10,0236_eid_dnn_32-10-10_bicycle_10_n03792782_15016.png
barlow_twins,1,237,NaN,airplane,boat,128-10-10,0237_eid_dnn_128-10-10_boat_10_n02951358_17867.png
barlow_twins,1,238,NaN,keyboard,cat,2-10-10,0238_eid_dnn_2-10-10_cat_10_n02123045_2364.png
barlow_twins,1,239,NaN,oven,bear,2-10-10,0239_eid_dnn_2-10-10_bear_10_n02132136_9433.png
barlow_twins,1,240,NaN,car,clock,32-10-10,0240_eid_dnn_32-10-10_clock_10_n03196217_3167.png
barlow_twins,1,241,NaN,truck,clock,32-10-10,0241_eid_dnn_32-10-10_clock_10_n03196217_3129.png
barlow_twins,1,242,NaN,airplane,keyboard,128-10-10,0242_eid_dnn_128-10-10_keyboard_10_n03085013_6067.png
barlow_twins,1,243,NaN,airplane,keyboard,2-10-10,0243_eid_dnn_2-10-10_keyboard_10_n03085013_24648.png
barlow_twins,1,244,NaN,car,oven,32-10-10,0244_eid_dnn_32-10-10_oven_10_n04111531_6695.png
barlow_twins,1,245,NaN,airplane,dog,4-10-10,0245_eid_dnn_4-10-10_dog_10_n02111500_4875.png
barlow_twins,1,246,NaN,car,oven,32-10-10,0246_eid_dnn_32-10-10_oven_10_n04111531_13018.png
barlow_twins,1,247,NaN,bottle,keyboard,128-10-10,0247_eid_dnn_128-10-10_keyboard_10_n03085013_23030.png
barlow_twins,1,248,NaN,keyboard,cat,8-10-10,0248_eid_dnn_8-10-10_cat_10_n02123045_8409.png
barlow_twins,1,249,NaN,car,bicycle,4-10-10,0249_eid_dnn_4-10-10_bicycle_10_n03792782_37777.png
barlow_twins,1,250,NaN,car,airplane,64-10-10,0250_eid_dnn_64-10-10_airplane_10_n02690373_614.png
barlow_twins,1,251,NaN,airplane,keyboard,128-10-10,0251_eid_dnn_128-10-10_keyboard_10_n03085013_19775.png
barlow_twins,1,252,NaN,bottle,bear,8-10-10,0252_eid_dnn_8-10-10_bear_10_n02133161_1244.png
barlow_twins,1,253,NaN,oven,keyboard,2-10-10,0253_eid_dnn_2-10-10_keyboard_10_n04505470_4368.png
barlow_twins,1,254,NaN,oven,oven,2-10-10,0254_eid_dnn_2-10-10_oven_10_n04111531_7728.png
barlow_twins,1,255,NaN,car,clock,8-10-10,0255_eid_dnn_8-10-10_clock_10_n04548280_1.png
barlow_twins,1,256,NaN,car,cat,64-10-10,0256_eid_dnn_64-10-10_cat_10_n02123394_3062.png
barlow_twins,1,257,NaN,oven,elephant,2-10-10,0257_eid_dnn_2-10-10_elephant_10_n02504013_466.png
barlow_twins,1,258,NaN,oven,elephant,1-10-10,0258_eid_dnn_1-10-10_elephant_10_n02504013_6275.png
barlow_twins,1,259,NaN,oven,bird,4-10-10,0259_eid_dnn_4-10-10_bird_10_n01560419_5466.png
barlow_twins,1,260,NaN,elephant,truck,8-10-10,0260_eid_dnn_8-10-10_truck_10_n03796401_5227.png
barlow_twins,1,261,NaN,truck,chair,2-10-10,0261_eid_dnn_2-10-10_chair_10_n04099969_25124.png
barlow_twins,1,262,NaN,bottle,elephant,64-10-10,0262_eid_dnn_64-10-10_elephant_10_n02504013_7209.png
barlow_twins,1,263,NaN,elephant,cat,1-10-10,0263_eid_dnn_1-10-10_cat_10_n02123597_4756.png
barlow_twins,1,264,NaN,airplane,bicycle,16-10-10,0264_eid_dnn_16-10-10_bicycle_10_n02835271_4654.png
barlow_twins,1,265,NaN,airplane,keyboard,1-10-10,0265_eid_dnn_1-10-10_keyboard_10_n04505470_2389.png
barlow_twins,1,266,NaN,elephant,knife,128-10-10,0266_eid_dnn_128-10-10_knife_10_n03041632_379.png
barlow_twins,1,267,NaN,keyboard,clock,8-10-10,0267_eid_dnn_8-10-10_clock_10_n02708093_899.png
barlow_twins,1,268,NaN,airplane,truck,128-10-10,0268_eid_dnn_128-10-10_truck_10_n03417042_10154.png
barlow_twins,1,269,NaN,elephant,bottle,2-10-10,0269_eid_dnn_2-10-10_bottle_10_n04579145_3415.png
barlow_twins,1,270,NaN,keyboard,chair,16-10-10,0270_eid_dnn_16-10-10_chair_10_n02791124_146.png
barlow_twins,1,271,NaN,airplane,elephant,128-10-10,0271_eid_dnn_128-10-10_elephant_10_n02504458_2835.png
barlow_twins,1,272,NaN,keyboard,bicycle,1-10-10,0272_eid_dnn_1-10-10_bicycle_10_n03792782_13835.png
barlow_twins,1,273,NaN,airplane,bicycle,32-10-10,0273_eid_dnn_32-10-10_bicycle_10_n02835271_12926.png
barlow_twins,1,274,NaN,keyboard,dog,2-10-10,0274_eid_dnn_2-10-10_dog_10_n02110185_11605.png
barlow_twins,1,275,NaN,elephant,elephant,128-10-10,0275_eid_dnn_128-10-10_elephant_10_n02504458_3091.png
barlow_twins,1,276,NaN,elephant,chair,128-10-10,0276_eid_dnn_128-10-10_chair_10_n04099969_5233.png
barlow_twins,1,277,NaN,bear,dog,2-10-10,0277_eid_dnn_2-10-10_dog_10_n02097209_7628.png
barlow_twins,1,278,NaN,airplane,cat,8-10-10,0278_eid_dnn_8-10-10_cat_10_n02123597_10941.png
barlow_twins,1,279,NaN,airplane,clock,16-10-10,0279_eid_dnn_16-10-10_clock_10_n02708093_3006.png
barlow_twins,1,280,NaN,oven,truck,1-10-10,0280_eid_dnn_1-10-10_truck_10_n03796401_26620.png
barlow_twins,1,281,NaN,elephant,bear,128-10-10,0281_eid_dnn_128-10-10_bear_10_n02134418_12733.png
barlow_twins,1,282,NaN,chair,knife,2-10-10,0282_eid_dnn_2-10-10_knife_10_n03041632_4806.png
barlow_twins,1,283,NaN,airplane,oven,4-10-10,0283_eid_dnn_4-10-10_oven_10_n04111531_17922.png
barlow_twins,1,284,NaN,elephant,bottle,1-10-10,0284_eid_dnn_1-10-10_bottle_10_n04579145_6818.png
barlow_twins,1,285,NaN,truck,keyboard,4-10-10,0285_eid_dnn_4-10-10_keyboard_10_n04505470_494.png
barlow_twins,1,286,NaN,elephant,cat,8-10-10,0286_eid_dnn_8-10-10_cat_10_n02123045_10834.png
barlow_twins,1,287,NaN,airplane,cat,128-10-10,0287_eid_dnn_128-10-10_cat_10_n02123394_176.png
barlow_twins,1,288,NaN,car,chair,128-10-10,0288_eid_dnn_128-10-10_chair_10_n03376595_2891.png
barlow_twins,1,289,NaN,elephant,dog,8-10-10,0289_eid_dnn_8-10-10_dog_10_n02093256_5647.png
barlow_twins,1,290,NaN,airplane,knife,64-10-10,0290_eid_dnn_64-10-10_knife_10_n03041632_33326.png
barlow_twins,1,291,NaN,car,airplane,8-10-10,0291_eid_dnn_8-10-10_airplane_10_n02690373_2856.png
barlow_twins,1,292,NaN,elephant,bicycle,128-10-10,0292_eid_dnn_128-10-10_bicycle_10_n03792782_9651.png
barlow_twins,1,293,NaN,knife,bicycle,2-10-10,0293_eid_dnn_2-10-10_bicycle_10_n02835271_7438.png
barlow_twins,1,294,NaN,keyboard,bicycle,128-10-10,0294_eid_dnn_128-10-10_bicycle_10_n02835271_26639.png
barlow_twins,1,295,NaN,oven,keyboard,8-10-10,0295_eid_dnn_8-10-10_keyboard_10_n04505470_4458.png
barlow_twins,1,296,NaN,elephant,dog,64-10-10,0296_eid_dnn_64-10-10_dog_10_n02106662_24847.png
barlow_twins,1,297,NaN,airplane,chair,32-10-10,0297_eid_dnn_32-10-10_chair_10_n03376595_8995.png
barlow_twins,1,298,NaN,car,bicycle,64-10-10,0298_eid_dnn_64-10-10_bicycle_10_n03792782_6030.png
barlow_twins,1,299,NaN,elephant,elephant,4-10-10,0299_eid_dnn_4-10-10_elephant_10_n02504458_7258.png
barlow_twins,1,300,NaN,elephant,boat,128-10-10,0300_eid_dnn_128-10-10_boat_10_n03662601_23903.png
barlow_twins,1,301,NaN,bottle,bird,16-10-10,0301_eid_dnn_16-10-10_bird_10_n02002724_578.png
barlow_twins,1,302,NaN,car,chair,64-10-10,0302_eid_dnn_64-10-10_chair_10_n03376595_2393.png
barlow_twins,1,303,NaN,car,boat,16-10-10,0303_eid_dnn_16-10-10_boat_10_n03662601_5118.png
barlow_twins,1,304,NaN,elephant,chair,8-10-10,0304_eid_dnn_8-10-10_chair_10_n04429376_21845.png
barlow_twins,1,305,NaN,bottle,dog,8-10-10,0305_eid_dnn_8-10-10_dog_10_n02102040_2216.png
barlow_twins,1,306,NaN,truck,airplane,8-10-10,0306_eid_dnn_8-10-10_airplane_10_n02690373_3032.png
barlow_twins,1,307,NaN,keyboard,dog,8-10-10,0307_eid_dnn_8-10-10_dog_10_n02100735_2228.png
barlow_twins,1,308,NaN,keyboard,bird,8-10-10,0308_eid_dnn_8-10-10_bird_10_n01532829_13864.png
barlow_twins,1,309,NaN,elephant,bird,64-10-10,0309_eid_dnn_64-10-10_bird_10_n01601694_13787.png
barlow_twins,1,310,NaN,elephant,bear,64-10-10,0310_eid_dnn_64-10-10_bear_10_n02134084_22150.png
barlow_twins,1,311,NaN,keyboard,knife,16-10-10,0311_eid_dnn_16-10-10_knife_10_n03041632_29427.png
barlow_twins,1,312,NaN,elephant,chair,4-10-10,0312_eid_dnn_4-10-10_chair_10_n02791124_2804.png
barlow_twins,1,313,NaN,oven,bottle,4-10-10,0313_eid_dnn_4-10-10_bottle_10_n04591713_5046.png
barlow_twins,1,314,NaN,bottle,bicycle,128-10-10,0314_eid_dnn_128-10-10_bicycle_10_n03792782_4210.png
barlow_twins,1,315,NaN,airplane,cat,128-10-10,0315_eid_dnn_128-10-10_cat_10_n02123159_1596.png
barlow_twins,1,316,NaN,car,car,2-10-10,0316_eid_dnn_2-10-10_car_10_n03100240_17588.png
barlow_twins,1,317,NaN,oven,keyboard,4-10-10,0317_eid_dnn_4-10-10_keyboard_10_n03085013_23295.png
barlow_twins,1,318,NaN,car,oven,32-10-10,0318_eid_dnn_32-10-10_oven_10_n04111531_4879.png
barlow_twins,1,319,NaN,airplane,keyboard,32-10-10,0319_eid_dnn_32-10-10_keyboard_10_n04505470_4569.png
barlow_twins,1,320,NaN,truck,truck,8-10-10,0320_eid_dnn_8-10-10_truck_10_n04467665_24190.png
barlow_twins,1,321,NaN,keyboard,cat,4-10-10,0321_eid_dnn_4-10-10_cat_10_n02124075_15405.png
barlow_twins,1,322,NaN,keyboard,knife,8-10-10,0322_eid_dnn_8-10-10_knife_10_n03041632_24817.png
barlow_twins,1,323,NaN,bottle,elephant,64-10-10,0323_eid_dnn_64-10-10_elephant_10_n02504013_5505.png
barlow_twins,1,324,NaN,truck,airplane,8-10-10,0324_eid_dnn_8-10-10_airplane_10_n02690373_8846.png
barlow_twins,1,325,NaN,bottle,truck,32-10-10,0325_eid_dnn_32-10-10_truck_10_n04467665_50806.png
barlow_twins,1,326,NaN,elephant,elephant,4-10-10,0326_eid_dnn_4-10-10_elephant_10_n02504458_5539.png
barlow_twins,1,327,NaN,knife,boat,1-10-10,0327_eid_dnn_1-10-10_boat_10_n03344393_1178.png
barlow_twins,1,328,NaN,keyboard,truck,4-10-10,0328_eid_dnn_4-10-10_truck_10_n04467665_10025.png
barlow_twins,1,329,NaN,elephant,clock,4-10-10,0329_eid_dnn_4-10-10_clock_10_n02708093_2869.png
barlow_twins,1,330,NaN,elephant,bottle,8-10-10,0330_eid_dnn_8-10-10_bottle_10_n03983396_4879.png
barlow_twins,1,331,NaN,airplane,keyboard,128-10-10,0331_eid_dnn_128-10-10_keyboard_10_n03085013_10367.png
barlow_twins,1,332,NaN,airplane,bird,64-10-10,0332_eid_dnn_64-10-10_bird_10_n01860187_21300.png
barlow_twins,1,333,NaN,car,knife,32-10-10,0333_eid_dnn_32-10-10_knife_10_n03041632_5302.png
barlow_twins,1,334,NaN,oven,bear,4-10-10,0334_eid_dnn_4-10-10_bear_10_n02134084_5274.png
barlow_twins,1,335,NaN,airplane,knife,4-10-10,0335_eid_dnn_4-10-10_knife_10_n03041632_48816.png
barlow_twins,1,336,NaN,keyboard,elephant,16-10-10,0336_eid_dnn_16-10-10_elephant_10_n02504013_3295.png
barlow_twins,1,337,NaN,elephant,truck,128-10-10,0337_eid_dnn_128-10-10_truck_10_n03417042_2478.png
barlow_twins,1,338,NaN,airplane,oven,32-10-10,0338_eid_dnn_32-10-10_oven_10_n04111531_5350.png
barlow_twins,1,339,NaN,truck,airplane,8-10-10,0339_eid_dnn_8-10-10_airplane_10_n02690373_1663.png
barlow_twins,1,340,NaN,knife,boat,4-10-10,0340_eid_dnn_4-10-10_boat_10_n03344393_1422.png
barlow_twins,1,341,NaN,keyboard,cat,32-10-10,0341_eid_dnn_32-10-10_cat_10_n02123159_3312.png
barlow_twins,1,342,NaN,car,chair,64-10-10,0342_eid_dnn_64-10-10_chair_10_n03376595_6171.png
barlow_twins,1,343,NaN,oven,bottle,8-10-10,0343_eid_dnn_8-10-10_bottle_10_n04591713_1616.png
barlow_twins,1,344,NaN,bottle,bear,128-10-10,0344_eid_dnn_128-10-10_bear_10_n02133161_1197.png
barlow_twins,1,345,NaN,elephant,truck,4-10-10,0345_eid_dnn_4-10-10_truck_10_n04467665_663.png
barlow_twins,1,346,NaN,keyboard,bear,4-10-10,0346_eid_dnn_4-10-10_bear_10_n02132136_2771.png
barlow_twins,1,347,NaN,bottle,cat,16-10-10,0347_eid_dnn_16-10-10_cat_10_n02123394_12.png
barlow_twins,1,348,NaN,bottle,car,8-10-10,0348_eid_dnn_8-10-10_car_10_n04285008_1795.png
barlow_twins,1,349,NaN,clock,boat,4-10-10,0349_eid_dnn_4-10-10_boat_10_n04273569_1023.png
barlow_twins,1,350,NaN,car,boat,1-10-10,0350_eid_dnn_1-10-10_boat_10_n03662601_21775.png
barlow_twins,1,351,NaN,knife,clock,1-10-10,0351_eid_dnn_1-10-10_clock_10_n03196217_71.png
barlow_twins,1,352,NaN,knife,keyboard,4-10-10,0352_eid_dnn_4-10-10_keyboard_10_n04505470_3122.png
barlow_twins,1,353,NaN,bottle,dog,32-10-10,0353_eid_dnn_32-10-10_dog_10_n02099849_4640.png
barlow_twins,1,354,NaN,keyboard,bottle,64-10-10,0354_eid_dnn_64-10-10_bottle_10_n02823428_6418.png
barlow_twins,1,355,NaN,airplane,car,8-10-10,0355_eid_dnn_8-10-10_car_10_n04285008_11704.png
barlow_twins,1,356,NaN,elephant,clock,32-10-10,0356_eid_dnn_32-10-10_clock_10_n02708093_3544.png
barlow_twins,1,357,NaN,elephant,clock,8-10-10,0357_eid_dnn_8-10-10_clock_10_n04548280_4599.png
barlow_twins,1,358,NaN,airplane,car,128-10-10,0358_eid_dnn_128-10-10_car_10_n03100240_6259.png
barlow_twins,1,359,NaN,car,boat,8-10-10,0359_eid_dnn_8-10-10_boat_10_n04273569_3401.png
barlow_twins,1,360,NaN,car,truck,64-10-10,0360_eid_dnn_64-10-10_truck_10_n04467665_13898.png
barlow_twins,1,361,NaN,bear,clock,2-10-10,0361_eid_dnn_2-10-10_clock_10_n03196217_1499.png
barlow_twins,1,362,NaN,airplane,car,4-10-10,0362_eid_dnn_4-10-10_car_10_n03100240_8702.png
barlow_twins,1,363,NaN,keyboard,bear,4-10-10,0363_eid_dnn_4-10-10_bear_10_n02134418_1770.png
barlow_twins,1,364,NaN,car,bear,16-10-10,0364_eid_dnn_16-10-10_bear_10_n02132136_32838.png
barlow_twins,1,365,NaN,keyboard,truck,4-10-10,0365_eid_dnn_4-10-10_truck_10_n04467665_68331.png
barlow_twins,1,366,NaN,knife,airplane,1-10-10,0366_eid_dnn_1-10-10_airplane_10_n02690373_4506.png
barlow_twins,1,367,NaN,car,car,2-10-10,0367_eid_dnn_2-10-10_car_10_n03100240_5308.png
barlow_twins,1,368,NaN,elephant,cat,2-10-10,0368_eid_dnn_2-10-10_cat_10_n02124075_15345.png
barlow_twins,1,369,NaN,airplane,bicycle,128-10-10,0369_eid_dnn_128-10-10_bicycle_10_n03792782_50972.png
barlow_twins,1,370,NaN,bottle,knife,8-10-10,0370_eid_dnn_8-10-10_knife_10_n03041632_19098.png
barlow_twins,1,371,NaN,car,bottle,128-10-10,0371_eid_dnn_128-10-10_bottle_10_n04560804_15963.png
barlow_twins,1,372,NaN,oven,bottle,8-10-10,0372_eid_dnn_8-10-10_bottle_10_n04557648_7809.png
barlow_twins,1,373,NaN,truck,airplane,1-10-10,0373_eid_dnn_1-10-10_airplane_10_n02690373_17764.png
barlow_twins,1,374,NaN,car,elephant,64-10-10,0374_eid_dnn_64-10-10_elephant_10_n02504013_7322.png
barlow_twins,1,375,NaN,oven,bear,2-10-10,0375_eid_dnn_2-10-10_bear_10_n02134084_2959.png
barlow_twins,1,376,NaN,cat,bird,2-10-10,0376_eid_dnn_2-10-10_bird_10_n01622779_6563.png
barlow_twins,1,377,NaN,airplane,knife,16-10-10,0377_eid_dnn_16-10-10_knife_10_n03041632_19620.png
barlow_twins,1,378,NaN,oven,bird,4-10-10,0378_eid_dnn_4-10-10_bird_10_n01530575_35977.png
barlow_twins,1,379,NaN,elephant,cat,128-10-10,0379_eid_dnn_128-10-10_cat_10_n02123394_1757.png
barlow_twins,1,380,NaN,oven,dog,2-10-10,0380_eid_dnn_2-10-10_dog_10_n02093647_6358.png
barlow_twins,1,381,NaN,keyboard,boat,1-10-10,0381_eid_dnn_1-10-10_boat_10_n02951358_1470.png
barlow_twins,1,382,NaN,car,elephant,128-10-10,0382_eid_dnn_128-10-10_elephant_10_n02504458_2026.png
barlow_twins,1,383,NaN,elephant,elephant,32-10-10,0383_eid_dnn_32-10-10_elephant_10_n02504458_3730.png
barlow_twins,1,384,NaN,airplane,keyboard,8-10-10,0384_eid_dnn_8-10-10_keyboard_10_n03085013_20881.png
barlow_twins,1,385,NaN,oven,dog,4-10-10,0385_eid_dnn_4-10-10_dog_10_n02105641_8188.png
barlow_twins,1,386,NaN,elephant,clock,32-10-10,0386_eid_dnn_32-10-10_clock_10_n03196217_6320.png
barlow_twins,1,387,NaN,airplane,car,32-10-10,0387_eid_dnn_32-10-10_car_10_n04285008_12333.png
barlow_twins,1,388,NaN,knife,knife,2-10-10,0388_eid_dnn_2-10-10_knife_10_n03041632_47743.png
barlow_twins,1,389,NaN,keyboard,boat,8-10-10,0389_eid_dnn_8-10-10_boat_10_n04612504_8073.png
barlow_twins,1,390,NaN,airplane,knife,128-10-10,0390_eid_dnn_128-10-10_knife_10_n03041632_20770.png
barlow_twins,1,391,NaN,airplane,car,32-10-10,0391_eid_dnn_32-10-10_car_10_n02814533_28783.png
barlow_twins,1,392,NaN,car,car,128-10-10,0392_eid_dnn_128-10-10_car_10_n02814533_13533.png
barlow_twins,1,393,NaN,oven,dog,16-10-10,0393_eid_dnn_16-10-10_dog_10_n02104029_8137.png
barlow_twins,1,394,NaN,car,bicycle,4-10-10,0394_eid_dnn_4-10-10_bicycle_10_n02835271_3990.png
barlow_twins,1,395,NaN,truck,bear,4-10-10,0395_eid_dnn_4-10-10_bear_10_n02132136_24311.png
barlow_twins,1,396,NaN,knife,truck,2-10-10,0396_eid_dnn_2-10-10_truck_10_n03796401_6966.png
barlow_twins,1,397,NaN,oven,knife,1-10-10,0397_eid_dnn_1-10-10_knife_10_n03041632_8468.png
barlow_twins,1,398,NaN,bottle,elephant,128-10-10,0398_eid_dnn_128-10-10_elephant_10_n02504458_6799.png
barlow_twins,1,399,NaN,airplane,keyboard,16-10-10,0399_eid_dnn_16-10-10_keyboard_10_n03085013_24402.png
barlow_twins,1,400,NaN,bottle,knife,16-10-10,0400_eid_dnn_16-10-10_knife_10_n03041632_25772.png
barlow_twins,1,401,NaN,airplane,elephant,32-10-10,0401_eid_dnn_32-10-10_elephant_10_n02504458_5839.png
barlow_twins,1,402,NaN,keyboard,elephant,64-10-10,0402_eid_dnn_64-10-10_elephant_10_n02504458_5178.png
barlow_twins,1,403,NaN,airplane,bicycle,32-10-10,0403_eid_dnn_32-10-10_bicycle_10_n02835271_27014.png
barlow_twins,1,404,NaN,airplane,car,128-10-10,0404_eid_dnn_128-10-10_car_10_n04285008_15218.png
barlow_twins,1,405,NaN,car,bicycle,8-10-10,0405_eid_dnn_8-10-10_bicycle_10_n02835271_19955.png
barlow_twins,1,406,NaN,keyboard,truck,1-10-10,0406_eid_dnn_1-10-10_truck_10_n03796401_874.png
barlow_twins,1,407,NaN,chair,dog,2-10-10,0407_eid_dnn_2-10-10_dog_10_n02108915_6092.png
barlow_twins,1,408,NaN,keyboard,clock,16-10-10,0408_eid_dnn_16-10-10_clock_10_n04548280_6337.png
barlow_twins,1,409,NaN,airplane,boat,4-10-10,0409_eid_dnn_4-10-10_boat_10_n04273569_1388.png
barlow_twins,1,410,NaN,elephant,clock,64-10-10,0410_eid_dnn_64-10-10_clock_10_n02708093_2676.png
barlow_twins,1,411,NaN,oven,dog,64-10-10,0411_eid_dnn_64-10-10_dog_10_n02107683_5424.png
barlow_twins,1,412,NaN,oven,chair,1-10-10,0412_eid_dnn_1-10-10_chair_10_n04099969_29038.png
barlow_twins,1,413,NaN,elephant,clock,16-10-10,0413_eid_dnn_16-10-10_clock_10_n04548280_3219.png
barlow_twins,1,414,NaN,airplane,clock,32-10-10,0414_eid_dnn_32-10-10_clock_10_n03196217_8282.png
barlow_twins,1,415,NaN,airplane,oven,8-10-10,0415_eid_dnn_8-10-10_oven_10_n04111531_22041.png
barlow_twins,1,416,NaN,elephant,bear,8-10-10,0416_eid_dnn_8-10-10_bear_10_n02134084_6964.png
barlow_twins,1,417,NaN,car,bicycle,64-10-10,0417_eid_dnn_64-10-10_bicycle_10_n03792782_11921.png
barlow_twins,1,418,NaN,bottle,clock,8-10-10,0418_eid_dnn_8-10-10_clock_10_n04548280_1809.png
barlow_twins,1,419,NaN,knife,bird,4-10-10,0419_eid_dnn_4-10-10_bird_10_n01833805_202.png
barlow_twins,1,420,NaN,airplane,keyboard,64-10-10,0420_eid_dnn_64-10-10_keyboard_10_n03085013_7511.png
barlow_twins,1,421,NaN,clock,bird,1-10-10,0421_eid_dnn_1-10-10_bird_10_n02025239_5287.png
barlow_twins,1,422,NaN,airplane,boat,64-10-10,0422_eid_dnn_64-10-10_boat_10_n03662601_27960.png
barlow_twins,1,423,NaN,oven,bottle,1-10-10,0423_eid_dnn_1-10-10_bottle_10_n04591713_6855.png
barlow_twins,1,424,NaN,car,elephant,128-10-10,0424_eid_dnn_128-10-10_elephant_10_n02504013_4424.png
barlow_twins,1,425,NaN,bottle,clock,2-10-10,0425_eid_dnn_2-10-10_clock_10_n04548280_3295.png
barlow_twins,1,426,NaN,knife,airplane,1-10-10,0426_eid_dnn_1-10-10_airplane_10_n02690373_6144.png
barlow_twins,1,427,NaN,car,truck,32-10-10,0427_eid_dnn_32-10-10_truck_10_n04467665_70894.png
barlow_twins,1,428,NaN,elephant,boat,128-10-10,0428_eid_dnn_128-10-10_boat_10_n02951358_30474.png
barlow_twins,1,429,NaN,bottle,bear,4-10-10,0429_eid_dnn_4-10-10_bear_10_n02132136_6434.png
barlow_twins,1,430,NaN,airplane,keyboard,32-10-10,0430_eid_dnn_32-10-10_keyboard_10_n04505470_5009.png
barlow_twins,1,431,NaN,airplane,keyboard,2-10-10,0431_eid_dnn_2-10-10_keyboard_10_n03085013_13005.png
barlow_twins,1,432,NaN,elephant,chair,1-10-10,0432_eid_dnn_1-10-10_chair_10_n03376595_6865.png
barlow_twins,1,433,NaN,elephant,bicycle,32-10-10,0433_eid_dnn_32-10-10_bicycle_10_n02835271_6122.png
barlow_twins,1,434,NaN,airplane,oven,4-10-10,0434_eid_dnn_4-10-10_oven_10_n04111531_11499.png
barlow_twins,1,435,NaN,elephant,bird,1-10-10,0435_eid_dnn_1-10-10_bird_10_n02009229_5765.png
barlow_twins,1,436,NaN,elephant,bottle,32-10-10,0436_eid_dnn_32-10-10_bottle_10_n04560804_2181.png
barlow_twins,1,437,NaN,knife,bicycle,32-10-10,0437_eid_dnn_32-10-10_bicycle_10_n03792782_3774.png
barlow_twins,1,438,NaN,keyboard,bird,16-10-10,0438_eid_dnn_16-10-10_bird_10_n01614925_1683.png
barlow_twins,1,439,NaN,oven,clock,8-10-10,0439_eid_dnn_8-10-10_clock_10_n02708093_4692.png
barlow_twins,1,440,NaN,knife,dog,4-10-10,0440_eid_dnn_4-10-10_dog_10_n02109961_71298.png
barlow_twins,1,441,NaN,airplane,keyboard,2-10-10,0441_eid_dnn_2-10-10_keyboard_10_n03085013_23269.png
barlow_twins,1,442,NaN,airplane,elephant,2-10-10,0442_eid_dnn_2-10-10_elephant_10_n02504458_5614.png
barlow_twins,1,443,NaN,bird,car,2-10-10,0443_eid_dnn_2-10-10_car_10_n04285008_4640.png
barlow_twins,1,444,NaN,airplane,oven,128-10-10,0444_eid_dnn_128-10-10_oven_10_n04111531_6346.png
barlow_twins,1,445,NaN,elephant,chair,2-10-10,0445_eid_dnn_2-10-10_chair_10_n04099969_14851.png
barlow_twins,1,446,NaN,airplane,bird,64-10-10,0446_eid_dnn_64-10-10_bird_10_n02051845_534.png
barlow_twins,1,447,NaN,elephant,bird,128-10-10,0447_eid_dnn_128-10-10_bird_10_n02056570_9342.png
barlow_twins,1,448,NaN,airplane,oven,16-10-10,0448_eid_dnn_16-10-10_oven_10_n04111531_4900.png
barlow_twins,1,449,NaN,keyboard,boat,32-10-10,0449_eid_dnn_32-10-10_boat_10_n02951358_31973.png
barlow_twins,1,450,NaN,elephant,keyboard,4-10-10,0450_eid_dnn_4-10-10_keyboard_10_n03085013_19842.png
barlow_twins,1,451,NaN,oven,keyboard,8-10-10,0451_eid_dnn_8-10-10_keyboard_10_n03085013_8296.png
barlow_twins,1,452,NaN,car,car,16-10-10,0452_eid_dnn_16-10-10_car_10_n03100240_3528.png
barlow_twins,1,453,NaN,keyboard,cat,8-10-10,0453_eid_dnn_8-10-10_cat_10_n02123159_7210.png
barlow_twins,1,454,NaN,clock,knife,16-10-10,0454_eid_dnn_16-10-10_knife_10_n03041632_56172.png
barlow_twins,1,455,NaN,airplane,oven,4-10-10,0455_eid_dnn_4-10-10_oven_10_n04111531_2116.png
barlow_twins,1,456,NaN,car,bicycle,8-10-10,0456_eid_dnn_8-10-10_bicycle_10_n02835271_12477.png
barlow_twins,1,457,NaN,elephant,knife,2-10-10,0457_eid_dnn_2-10-10_knife_10_n03041632_42472.png
barlow_twins,1,458,NaN,oven,oven,2-10-10,0458_eid_dnn_2-10-10_oven_10_n04111531_8818.png
barlow_twins,1,459,NaN,elephant,truck,2-10-10,0459_eid_dnn_2-10-10_truck_10_n04467665_67115.png
barlow_twins,1,460,NaN,car,bird,4-10-10,0460_eid_dnn_4-10-10_bird_10_n02011460_3521.png
barlow_twins,1,461,NaN,airplane,bear,64-10-10,0461_eid_dnn_64-10-10_bear_10_n02133161_3533.png
barlow_twins,1,462,NaN,keyboard,bird,8-10-10,0462_eid_dnn_8-10-10_bird_10_n02013706_637.png
barlow_twins,1,463,NaN,airplane,bear,64-10-10,0463_eid_dnn_64-10-10_bear_10_n02132136_29636.png
barlow_twins,1,464,NaN,airplane,bicycle,2-10-10,0464_eid_dnn_2-10-10_bicycle_10_n02835271_634.png
barlow_twins,1,465,NaN,oven,keyboard,1-10-10,0465_eid_dnn_1-10-10_keyboard_10_n04505470_4621.png
barlow_twins,1,466,NaN,keyboard,bear,16-10-10,0466_eid_dnn_16-10-10_bear_10_n02134084_2844.png
barlow_twins,1,467,NaN,elephant,bicycle,4-10-10,0467_eid_dnn_4-10-10_bicycle_10_n03792782_17088.png
barlow_twins,1,468,NaN,truck,clock,4-10-10,0468_eid_dnn_4-10-10_clock_10_n03196217_8706.png
barlow_twins,1,469,NaN,oven,oven,4-10-10,0469_eid_dnn_4-10-10_oven_10_n04111531_15052.png
barlow_twins,1,470,NaN,airplane,bottle,16-10-10,0470_eid_dnn_16-10-10_bottle_10_n04560804_5769.png
barlow_twins,1,471,NaN,elephant,dog,128-10-10,0471_eid_dnn_128-10-10_dog_10_n02110063_14116.png
barlow_twins,1,472,NaN,bottle,cat,32-10-10,0472_eid_dnn_32-10-10_cat_10_n02124075_3609.png
barlow_twins,1,473,NaN,clock,airplane,32-10-10,0473_eid_dnn_32-10-10_airplane_10_n02690373_10926.png
barlow_twins,1,474,NaN,bottle,bird,16-10-10,0474_eid_dnn_16-10-10_bird_10_n02033041_7229.png
barlow_twins,1,475,NaN,elephant,bird,2-10-10,0475_eid_dnn_2-10-10_bird_10_n02006656_611.png
barlow_twins,1,476,NaN,car,bear,16-10-10,0476_eid_dnn_16-10-10_bear_10_n02133161_958.png
barlow_twins,1,477,NaN,bottle,bird,8-10-10,0477_eid_dnn_8-10-10_bird_10_n01843065_148.png
barlow_twins,1,478,NaN,keyboard,cat,32-10-10,0478_eid_dnn_32-10-10_cat_10_n02123597_13623.png
barlow_twins,1,479,NaN,airplane,bicycle,8-10-10,0479_eid_dnn_8-10-10_bicycle_10_n02835271_12957.png
barlow_twins,1,480,NaN,bicycle,knife,8-10-10,0480_eid_dnn_8-10-10_knife_10_n03041632_96714.png
barlow_twins,1,481,NaN,bottle,bear,128-10-10,0481_eid_dnn_128-10-10_bear_10_n02133161_3550.png
barlow_twins,1,482,NaN,keyboard,airplane,2-10-10,0482_eid_dnn_2-10-10_airplane_10_n02690373_4471.png
barlow_twins,1,483,NaN,airplane,airplane,64-10-10,0483_eid_dnn_64-10-10_airplane_10_n02690373_2026.png
barlow_twins,1,484,NaN,keyboard,car,1-10-10,0484_eid_dnn_1-10-10_car_10_n03100240_18270.png
barlow_twins,1,485,NaN,elephant,elephant,128-10-10,0485_eid_dnn_128-10-10_elephant_10_n02504458_5204.png
barlow_twins,1,486,NaN,airplane,oven,1-10-10,0486_eid_dnn_1-10-10_oven_10_n04111531_10339.png
barlow_twins,1,487,NaN,airplane,elephant,2-10-10,0487_eid_dnn_2-10-10_elephant_10_n02504458_12705.png
barlow_twins,1,488,NaN,oven,boat,1-10-10,0488_eid_dnn_1-10-10_boat_10_n03344393_9268.png
barlow_twins,1,489,NaN,airplane,bicycle,16-10-10,0489_eid_dnn_16-10-10_bicycle_10_n02835271_23173.png
barlow_twins,1,490,NaN,airplane,knife,32-10-10,0490_eid_dnn_32-10-10_knife_10_n03041632_43975.png
barlow_twins,1,491,NaN,car,bicycle,128-10-10,0491_eid_dnn_128-10-10_bicycle_10_n03792782_3299.png
barlow_twins,1,492,NaN,airplane,boat,32-10-10,0492_eid_dnn_32-10-10_boat_10_n04273569_5679.png
barlow_twins,1,493,NaN,car,bird,32-10-10,0493_eid_dnn_32-10-10_bird_10_n02056570_10127.png
barlow_twins,1,494,NaN,car,bear,32-10-10,0494_eid_dnn_32-10-10_bear_10_n02133161_7688.png
barlow_twins,1,495,NaN,bottle,cat,16-10-10,0495_eid_dnn_16-10-10_cat_10_n02123597_624.png
barlow_twins,1,496,NaN,car,bird,64-10-10,0496_eid_dnn_64-10-10_bird_10_n01560419_3399.png
barlow_twins,1,497,NaN,keyboard,cat,32-10-10,0497_eid_dnn_32-10-10_cat_10_n02123045_12762.png
barlow_twins,1,498,NaN,car,car,16-10-10,0498_eid_dnn_16-10-10_car_10_n02814533_7247.png
barlow_twins,1,499,NaN,cat,keyboard,4-10-10,0499_eid_dnn_4-10-10_keyboard_10_n03085013_4941.png
barlow_twins,1,500,NaN,keyboard,truck,4-10-10,0500_eid_dnn_4-10-10_truck_10_n03417042_6420.png
barlow_twins,1,501,NaN,airplane,boat,64-10-10,0501_eid_dnn_64-10-10_boat_10_n03662601_2120.png
barlow_twins,1,502,NaN,keyboard,bear,2-10-10,0502_eid_dnn_2-10-10_bear_10_n02134084_7331.png
barlow_twins,1,503,NaN,airplane,bottle,32-10-10,0503_eid_dnn_32-10-10_bottle_10_n02823428_906.png
barlow_twins,1,504,NaN,bottle,cat,16-10-10,0504_eid_dnn_16-10-10_cat_10_n02123394_270.png
barlow_twins,1,505,NaN,elephant,boat,2-10-10,0505_eid_dnn_2-10-10_boat_10_n02951358_1910.png
barlow_twins,1,506,NaN,oven,knife,4-10-10,0506_eid_dnn_4-10-10_knife_10_n03041632_23678.png
barlow_twins,1,507,NaN,car,car,16-10-10,0507_eid_dnn_16-10-10_car_10_n02814533_31083.png
barlow_twins,1,508,NaN,airplane,keyboard,1-10-10,0508_eid_dnn_1-10-10_keyboard_10_n04505470_2881.png
barlow_twins,1,509,NaN,elephant,cat,8-10-10,0509_eid_dnn_8-10-10_cat_10_n02125311_2923.png
barlow_twins,1,510,NaN,airplane,bicycle,2-10-10,0510_eid_dnn_2-10-10_bicycle_10_n03792782_2598.png
barlow_twins,1,511,NaN,elephant,car,2-10-10,0511_eid_dnn_2-10-10_car_10_n03100240_4460.png
barlow_twins,1,512,NaN,oven,knife,4-10-10,0512_eid_dnn_4-10-10_knife_10_n03041632_29920.png
barlow_twins,1,513,NaN,elephant,bird,32-10-10,0513_eid_dnn_32-10-10_bird_10_n01796340_3845.png
barlow_twins,1,514,NaN,airplane,keyboard,8-10-10,0514_eid_dnn_8-10-10_keyboard_10_n03085013_21932.png
barlow_twins,1,515,NaN,oven,bottle,1-10-10,0515_eid_dnn_1-10-10_bottle_10_n02823428_64.png
barlow_twins,1,516,NaN,keyboard,chair,8-10-10,0516_eid_dnn_8-10-10_chair_10_n04099969_4374.png
barlow_twins,1,517,NaN,knife,clock,1-10-10,0517_eid_dnn_1-10-10_clock_10_n02708093_8257.png
barlow_twins,1,518,NaN,bottle,knife,16-10-10,0518_eid_dnn_16-10-10_knife_10_n03041632_45569.png
barlow_twins,1,519,NaN,car,chair,128-10-10,0519_eid_dnn_128-10-10_chair_10_n04099969_1850.png
barlow_twins,1,520,NaN,elephant,dog,2-10-10,0520_eid_dnn_2-10-10_dog_10_n02092002_2008.png
barlow_twins,1,521,NaN,bottle,bicycle,8-10-10,0521_eid_dnn_8-10-10_bicycle_10_n02835271_8105.png
barlow_twins,1,522,NaN,airplane,oven,64-10-10,0522_eid_dnn_64-10-10_oven_10_n04111531_14126.png
barlow_twins,1,523,NaN,elephant,elephant,4-10-10,0523_eid_dnn_4-10-10_elephant_10_n02504013_13766.png
barlow_twins,1,524,NaN,airplane,bicycle,64-10-10,0524_eid_dnn_64-10-10_bicycle_10_n02835271_18361.png
barlow_twins,1,525,NaN,airplane,bird,8-10-10,0525_eid_dnn_8-10-10_bird_10_n01582220_4708.png
barlow_twins,1,526,NaN,car,chair,16-10-10,0526_eid_dnn_16-10-10_chair_10_n04099969_101.png
barlow_twins,1,527,NaN,bicycle,cat,1-10-10,0527_eid_dnn_1-10-10_cat_10_n02124075_724.png
barlow_twins,1,528,NaN,bottle,bicycle,32-10-10,0528_eid_dnn_32-10-10_bicycle_10_n02835271_43.png
barlow_twins,1,529,NaN,oven,bird,2-10-10,0529_eid_dnn_2-10-10_bird_10_n02017213_5362.png
barlow_twins,1,530,NaN,keyboard,dog,1-10-10,0530_eid_dnn_1-10-10_dog_10_n02088466_1769.png
barlow_twins,1,531,NaN,knife,bear,1-10-10,0531_eid_dnn_1-10-10_bear_10_n02133161_5653.png
barlow_twins,1,532,NaN,bear,dog,1-10-10,0532_eid_dnn_1-10-10_dog_10_n02098105_4676.png
barlow_twins,1,533,NaN,oven,cat,2-10-10,0533_eid_dnn_2-10-10_cat_10_n02123045_3593.png
barlow_twins,1,534,NaN,elephant,bottle,8-10-10,0534_eid_dnn_8-10-10_bottle_10_n04560804_265.png
barlow_twins,1,535,NaN,car,knife,128-10-10,0535_eid_dnn_128-10-10_knife_10_n03041632_1556.png
barlow_twins,1,536,NaN,truck,chair,4-10-10,0536_eid_dnn_4-10-10_chair_10_n02791124_9595.png
barlow_twins,1,537,NaN,airplane,dog,32-10-10,0537_eid_dnn_32-10-10_dog_10_n02107312_2933.png
barlow_twins,1,538,NaN,keyboard,oven,32-10-10,0538_eid_dnn_32-10-10_oven_10_n04111531_101.png
barlow_twins,1,539,NaN,airplane,truck,4-10-10,0539_eid_dnn_4-10-10_truck_10_n03417042_7204.png
barlow_twins,1,540,NaN,car,bear,64-10-10,0540_eid_dnn_64-10-10_bear_10_n02132136_2120.png
barlow_twins,1,541,NaN,airplane,airplane,64-10-10,0541_eid_dnn_64-10-10_airplane_10_n02690373_18412.png
barlow_twins,1,542,NaN,elephant,knife,128-10-10,0542_eid_dnn_128-10-10_knife_10_n03041632_21017.png
barlow_twins,1,543,NaN,bottle,elephant,128-10-10,0543_eid_dnn_128-10-10_elephant_10_n02504458_8414.png
barlow_twins,1,544,NaN,airplane,bottle,128-10-10,0544_eid_dnn_128-10-10_bottle_10_n04557648_11046.png
barlow_twins,1,545,NaN,airplane,clock,64-10-10,0545_eid_dnn_64-10-10_clock_10_n03196217_10578.png
barlow_twins,1,546,NaN,elephant,bear,2-10-10,0546_eid_dnn_2-10-10_bear_10_n02134418_3213.png
barlow_twins,1,547,NaN,airplane,clock,64-10-10,0547_eid_dnn_64-10-10_clock_10_n03196217_6289.png
barlow_twins,1,548,NaN,car,dog,32-10-10,0548_eid_dnn_32-10-10_dog_10_n02096294_1498.png
barlow_twins,1,549,NaN,airplane,oven,16-10-10,0549_eid_dnn_16-10-10_oven_10_n04111531_519.png
barlow_twins,1,550,NaN,oven,bird,1-10-10,0550_eid_dnn_1-10-10_bird_10_n01531178_14959.png
barlow_twins,1,551,NaN,car,bear,32-10-10,0551_eid_dnn_32-10-10_bear_10_n02132136_8754.png
barlow_twins,1,552,NaN,knife,car,1-10-10,0552_eid_dnn_1-10-10_car_10_n02814533_73067.png
barlow_twins,1,553,NaN,elephant,cat,8-10-10,0553_eid_dnn_8-10-10_cat_10_n02124075_15378.png
barlow_twins,1,554,NaN,elephant,bird,128-10-10,0554_eid_dnn_128-10-10_bird_10_n01592084_7569.png
barlow_twins,1,555,NaN,elephant,dog,128-10-10,0555_eid_dnn_128-10-10_dog_10_n02094114_3395.png
barlow_twins,1,556,NaN,oven,chair,4-10-10,0556_eid_dnn_4-10-10_chair_10_n03376595_1712.png
barlow_twins,1,557,NaN,airplane,bear,64-10-10,0557_eid_dnn_64-10-10_bear_10_n02134084_622.png
barlow_twins,1,558,NaN,elephant,clock,8-10-10,0558_eid_dnn_8-10-10_clock_10_n03196217_4912.png
barlow_twins,1,559,NaN,airplane,car,64-10-10,0559_eid_dnn_64-10-10_car_10_n03100240_18815.png
barlow_twins,1,560,NaN,elephant,chair,2-10-10,0560_eid_dnn_2-10-10_chair_10_n04099969_2020.png
barlow_twins,1,561,NaN,oven,bear,1-10-10,0561_eid_dnn_1-10-10_bear_10_n02132136_7647.png
barlow_twins,1,562,NaN,airplane,oven,128-10-10,0562_eid_dnn_128-10-10_oven_10_n04111531_2796.png
barlow_twins,1,563,NaN,airplane,truck,64-10-10,0563_eid_dnn_64-10-10_truck_10_n03796401_9472.png
barlow_twins,1,564,NaN,elephant,chair,4-10-10,0564_eid_dnn_4-10-10_chair_10_n03376595_12433.png
barlow_twins,1,565,NaN,bottle,truck,4-10-10,0565_eid_dnn_4-10-10_truck_10_n04467665_31539.png
barlow_twins,1,566,NaN,car,airplane,32-10-10,0566_eid_dnn_32-10-10_airplane_10_n02690373_10657.png
barlow_twins,1,567,NaN,airplane,truck,16-10-10,0567_eid_dnn_16-10-10_truck_10_n03796401_5963.png
barlow_twins,1,568,NaN,bottle,dog,64-10-10,0568_eid_dnn_64-10-10_dog_10_n02096294_2233.png
barlow_twins,1,569,NaN,airplane,airplane,128-10-10,0569_eid_dnn_128-10-10_airplane_10_n02690373_4873.png
barlow_twins,1,570,NaN,car,truck,1-10-10,0570_eid_dnn_1-10-10_truck_10_n04467665_4825.png
barlow_twins,1,571,NaN,elephant,chair,16-10-10,0571_eid_dnn_16-10-10_chair_10_n04099969_1704.png
barlow_twins,1,572,NaN,airplane,bicycle,2-10-10,0572_eid_dnn_2-10-10_bicycle_10_n02835271_1573.png
barlow_twins,1,573,NaN,airplane,boat,2-10-10,0573_eid_dnn_2-10-10_boat_10_n04273569_12725.png
barlow_twins,1,574,NaN,airplane,knife,128-10-10,0574_eid_dnn_128-10-10_knife_10_n03041632_11285.png
barlow_twins,1,575,NaN,oven,clock,4-10-10,0575_eid_dnn_4-10-10_clock_10_n03196217_8254.png
barlow_twins,1,576,NaN,bottle,knife,16-10-10,0576_eid_dnn_16-10-10_knife_10_n03041632_15099.png
barlow_twins,1,577,NaN,car,cat,64-10-10,0577_eid_dnn_64-10-10_cat_10_n02125311_30452.png
barlow_twins,1,578,NaN,elephant,bottle,32-10-10,0578_eid_dnn_32-10-10_bottle_10_n04591713_6804.png
barlow_twins,1,579,NaN,airplane,dog,64-10-10,0579_eid_dnn_64-10-10_dog_10_n02088364_14369.png
barlow_twins,1,580,NaN,airplane,truck,32-10-10,0580_eid_dnn_32-10-10_truck_10_n03796401_16425.png
barlow_twins,1,581,NaN,airplane,truck,64-10-10,0581_eid_dnn_64-10-10_truck_10_n03417042_5406.png
barlow_twins,1,582,NaN,knife,knife,1-10-10,0582_eid_dnn_1-10-10_knife_10_n03041632_52929.png
barlow_twins,1,583,NaN,keyboard,chair,64-10-10,0583_eid_dnn_64-10-10_chair_10_n03376595_4820.png
barlow_twins,1,584,NaN,elephant,chair,1-10-10,0584_eid_dnn_1-10-10_chair_10_n03376595_787.png
barlow_twins,1,585,NaN,oven,chair,2-10-10,0585_eid_dnn_2-10-10_chair_10_n03376595_7709.png
barlow_twins,1,586,NaN,elephant,bottle,1-10-10,0586_eid_dnn_1-10-10_bottle_10_n03983396_11006.png
barlow_twins,1,587,NaN,elephant,oven,8-10-10,0587_eid_dnn_8-10-10_oven_10_n04111531_458.png
barlow_twins,1,588,NaN,car,cat,128-10-10,0588_eid_dnn_128-10-10_cat_10_n02123045_7829.png
barlow_twins,1,589,NaN,elephant,bear,1-10-10,0589_eid_dnn_1-10-10_bear_10_n02134418_4685.png
barlow_twins,1,590,NaN,elephant,knife,64-10-10,0590_eid_dnn_64-10-10_knife_10_n03041632_1964.png
barlow_twins,1,591,NaN,car,car,4-10-10,0591_eid_dnn_4-10-10_car_10_n03100240_17472.png
barlow_twins,1,592,NaN,car,dog,16-10-10,0592_eid_dnn_16-10-10_dog_10_n02113023_1980.png
barlow_twins,1,593,NaN,keyboard,dog,32-10-10,0593_eid_dnn_32-10-10_dog_10_n02100735_6359.png
barlow_twins,1,594,NaN,keyboard,knife,1-10-10,0594_eid_dnn_1-10-10_knife_10_n03041632_31849.png
barlow_twins,1,595,NaN,airplane,bird,8-10-10,0595_eid_dnn_8-10-10_bird_10_n01532829_23378.png
barlow_twins,1,596,NaN,car,clock,64-10-10,0596_eid_dnn_64-10-10_clock_10_n02708093_5127.png
barlow_twins,1,597,NaN,bottle,bear,4-10-10,0597_eid_dnn_4-10-10_bear_10_n02134084_12148.png
barlow_twins,1,598,NaN,elephant,elephant,4-10-10,0598_eid_dnn_4-10-10_elephant_10_n02504458_63.png
barlow_twins,1,599,NaN,car,dog,2-10-10,0599_eid_dnn_2-10-10_dog_10_n02108551_13160.png
barlow_twins,1,600,NaN,truck,bicycle,2-10-10,0600_eid_dnn_2-10-10_bicycle_10_n02835271_3215.png
barlow_twins,1,601,NaN,keyboard,bicycle,16-10-10,0601_eid_dnn_16-10-10_bicycle_10_n03792782_14216.png
barlow_twins,1,602,NaN,knife,bicycle,2-10-10,0602_eid_dnn_2-10-10_bicycle_10_n03792782_25352.png
barlow_twins,1,603,NaN,airplane,boat,128-10-10,0603_eid_dnn_128-10-10_boat_10_n04273569_1482.png
barlow_twins,1,604,NaN,airplane,car,2-10-10,0604_eid_dnn_2-10-10_car_10_n02814533_59053.png
barlow_twins,1,605,NaN,truck,airplane,128-10-10,0605_eid_dnn_128-10-10_airplane_10_n02690373_10462.png
barlow_twins,1,606,NaN,oven,bottle,8-10-10,0606_eid_dnn_8-10-10_bottle_10_n04560804_15379.png
barlow_twins,1,607,NaN,car,chair,16-10-10,0607_eid_dnn_16-10-10_chair_10_n02791124_1140.png
barlow_twins,1,608,NaN,elephant,dog,8-10-10,0608_eid_dnn_8-10-10_dog_10_n02101388_24945.png
barlow_twins,1,609,NaN,elephant,cat,64-10-10,0609_eid_dnn_64-10-10_cat_10_n02124075_20957.png
barlow_twins,1,610,NaN,elephant,elephant,1-10-10,0610_eid_dnn_1-10-10_elephant_10_n02504013_8105.png
barlow_twins,1,611,NaN,car,truck,2-10-10,0611_eid_dnn_2-10-10_truck_10_n03796401_13992.png
barlow_twins,1,612,NaN,airplane,bottle,128-10-10,0612_eid_dnn_128-10-10_bottle_10_n04560804_22426.png
barlow_twins,1,613,NaN,keyboard,cat,1-10-10,0613_eid_dnn_1-10-10_cat_10_n02123159_2100.png
barlow_twins,1,614,NaN,airplane,clock,64-10-10,0614_eid_dnn_64-10-10_clock_10_n02708093_6560.png
barlow_twins,1,615,NaN,oven,bird,1-10-10,0615_eid_dnn_1-10-10_bird_10_n01855032_4905.png
barlow_twins,1,616,NaN,truck,clock,2-10-10,0616_eid_dnn_2-10-10_clock_10_n04548280_2616.png
barlow_twins,1,617,NaN,knife,truck,2-10-10,0617_eid_dnn_2-10-10_truck_10_n03417042_3789.png
barlow_twins,1,618,NaN,airplane,oven,64-10-10,0618_eid_dnn_64-10-10_oven_10_n04111531_7356.png
barlow_twins,1,619,NaN,knife,cat,4-10-10,0619_eid_dnn_4-10-10_cat_10_n02124075_18687.png
barlow_twins,1,620,NaN,truck,keyboard,8-10-10,0620_eid_dnn_8-10-10_keyboard_10_n03085013_17884.png
barlow_twins,1,621,NaN,airplane,keyboard,2-10-10,0621_eid_dnn_2-10-10_keyboard_10_n03085013_4780.png
barlow_twins,1,622,NaN,airplane,cat,16-10-10,0622_eid_dnn_16-10-10_cat_10_n02123045_15476.png
barlow_twins,1,623,NaN,airplane,keyboard,4-10-10,0623_eid_dnn_4-10-10_keyboard_10_n03085013_6095.png
barlow_twins,1,624,NaN,truck,airplane,1-10-10,0624_eid_dnn_1-10-10_airplane_10_n02690373_18848.png
barlow_twins,1,625,NaN,airplane,bicycle,16-10-10,0625_eid_dnn_16-10-10_bicycle_10_n02835271_18706.png
barlow_twins,1,626,NaN,keyboard,dog,1-10-10,0626_eid_dnn_1-10-10_dog_10_n02111500_1393.png
barlow_twins,1,627,NaN,airplane,airplane,2-10-10,0627_eid_dnn_2-10-10_airplane_10_n02690373_5748.png
barlow_twins,1,628,NaN,car,dog,128-10-10,0628_eid_dnn_128-10-10_dog_10_n02100877_7049.png
barlow_twins,1,629,NaN,airplane,bear,32-10-10,0629_eid_dnn_32-10-10_bear_10_n02134084_6854.png
barlow_twins,1,630,NaN,airplane,bottle,16-10-10,0630_eid_dnn_16-10-10_bottle_10_n03983396_11402.png
barlow_twins,1,631,NaN,elephant,cat,64-10-10,0631_eid_dnn_64-10-10_cat_10_n02124075_2813.png
barlow_twins,1,632,NaN,keyboard,keyboard,32-10-10,0632_eid_dnn_32-10-10_keyboard_10_n03085013_23814.png
barlow_twins,1,633,NaN,keyboard,cat,2-10-10,0633_eid_dnn_2-10-10_cat_10_n02125311_30349.png
barlow_twins,1,634,NaN,elephant,bear,16-10-10,0634_eid_dnn_16-10-10_bear_10_n02133161_1234.png
barlow_twins,1,635,NaN,car,oven,128-10-10,0635_eid_dnn_128-10-10_oven_10_n04111531_9779.png
barlow_twins,1,636,NaN,car,car,64-10-10,0636_eid_dnn_64-10-10_car_10_n02814533_19373.png
barlow_twins,1,637,NaN,oven,bird,4-10-10,0637_eid_dnn_4-10-10_bird_10_n02051845_41380.png
barlow_twins,1,638,NaN,airplane,cat,16-10-10,0638_eid_dnn_16-10-10_cat_10_n02123159_2455.png
barlow_twins,1,639,NaN,truck,knife,8-10-10,0639_eid_dnn_8-10-10_knife_10_n03041632_23803.png
barlow_twins,1,640,NaN,airplane,boat,16-10-10,0640_eid_dnn_16-10-10_boat_10_n02951358_2013.png
barlow_twins,1,641,NaN,airplane,bottle,64-10-10,0641_eid_dnn_64-10-10_bottle_10_n04591713_6561.png
barlow_twins,1,642,NaN,airplane,elephant,32-10-10,0642_eid_dnn_32-10-10_elephant_10_n02504013_12531.png
barlow_twins,1,643,NaN,elephant,boat,64-10-10,0643_eid_dnn_64-10-10_boat_10_n04612504_4719.png
barlow_twins,1,644,NaN,car,car,32-10-10,0644_eid_dnn_32-10-10_car_10_n02814533_46403.png
barlow_twins,1,645,NaN,keyboard,airplane,8-10-10,0645_eid_dnn_8-10-10_airplane_10_n02690373_8304.png
barlow_twins,1,646,NaN,car,boat,16-10-10,0646_eid_dnn_16-10-10_boat_10_n03662601_2686.png
barlow_twins,1,647,NaN,keyboard,dog,2-10-10,0647_eid_dnn_2-10-10_dog_10_n02099849_2787.png
barlow_twins,1,648,NaN,knife,elephant,1-10-10,0648_eid_dnn_1-10-10_elephant_10_n02504458_7063.png
barlow_twins,1,649,NaN,knife,chair,1-10-10,0649_eid_dnn_1-10-10_chair_10_n03376595_6938.png
barlow_twins,1,650,NaN,bottle,chair,8-10-10,0650_eid_dnn_8-10-10_chair_10_n02791124_5191.png
barlow_twins,1,651,NaN,cat,boat,2-10-10,0651_eid_dnn_2-10-10_boat_10_n02951358_2350.png
barlow_twins,1,652,NaN,bottle,bear,8-10-10,0652_eid_dnn_8-10-10_bear_10_n02132136_6266.png
barlow_twins,1,653,NaN,airplane,chair,32-10-10,0653_eid_dnn_32-10-10_chair_10_n03376595_8964.png
barlow_twins,1,654,NaN,knife,airplane,2-10-10,0654_eid_dnn_2-10-10_airplane_10_n02690373_4042.png
barlow_twins,1,655,NaN,airplane,oven,2-10-10,0655_eid_dnn_2-10-10_oven_10_n04111531_845.png
barlow_twins,1,656,NaN,airplane,car,32-10-10,0656_eid_dnn_32-10-10_car_10_n02814533_49630.png
barlow_twins,1,657,NaN,keyboard,knife,4-10-10,0657_eid_dnn_4-10-10_knife_10_n03041632_40450.png
barlow_twins,1,658,NaN,keyboard,chair,16-10-10,0658_eid_dnn_16-10-10_chair_10_n04429376_11720.png
barlow_twins,1,659,NaN,elephant,knife,4-10-10,0659_eid_dnn_4-10-10_knife_10_n03041632_27929.png
barlow_twins,1,660,NaN,knife,bird,1-10-10,0660_eid_dnn_1-10-10_bird_10_n02018207_10146.png
barlow_twins,1,661,NaN,elephant,elephant,32-10-10,0661_eid_dnn_32-10-10_elephant_10_n02504458_2471.png
barlow_twins,1,662,NaN,bottle,oven,8-10-10,0662_eid_dnn_8-10-10_oven_10_n04111531_20511.png
barlow_twins,1,663,NaN,car,truck,32-10-10,0663_eid_dnn_32-10-10_truck_10_n03417042_3228.png
barlow_twins,1,664,NaN,bear,cat,2-10-10,0664_eid_dnn_2-10-10_cat_10_n02125311_9364.png
barlow_twins,1,665,NaN,car,car,2-10-10,0665_eid_dnn_2-10-10_car_10_n04285008_16701.png
barlow_twins,1,666,NaN,keyboard,boat,8-10-10,0666_eid_dnn_8-10-10_boat_10_n04273569_2667.png
barlow_twins,1,667,NaN,knife,boat,1-10-10,0667_eid_dnn_1-10-10_boat_10_n03662601_24208.png
barlow_twins,1,668,NaN,elephant,truck,8-10-10,0668_eid_dnn_8-10-10_truck_10_n03417042_11037.png
barlow_twins,1,669,NaN,car,bird,1-10-10,0669_eid_dnn_1-10-10_bird_10_n02002724_19618.png
barlow_twins,1,670,NaN,bottle,bear,16-10-10,0670_eid_dnn_16-10-10_bear_10_n02134418_1663.png
barlow_twins,1,671,NaN,airplane,chair,128-10-10,0671_eid_dnn_128-10-10_chair_10_n04099969_19484.png
barlow_twins,1,672,NaN,cat,car,1-10-10,0672_eid_dnn_1-10-10_car_10_n04285008_2727.png
barlow_twins,1,673,NaN,car,bicycle,32-10-10,0673_eid_dnn_32-10-10_bicycle_10_n03792782_14935.png
barlow_twins,1,674,NaN,elephant,cat,128-10-10,0674_eid_dnn_128-10-10_cat_10_n02124075_8320.png
barlow_twins,1,675,NaN,elephant,chair,4-10-10,0675_eid_dnn_4-10-10_chair_10_n04429376_57014.png
barlow_twins,1,676,NaN,knife,oven,1-10-10,0676_eid_dnn_1-10-10_oven_10_n04111531_2385.png
barlow_twins,1,677,NaN,car,dog,64-10-10,0677_eid_dnn_64-10-10_dog_10_n02113023_10107.png
barlow_twins,1,678,NaN,bottle,elephant,16-10-10,0678_eid_dnn_16-10-10_elephant_10_n02504458_4708.png
barlow_twins,1,679,NaN,airplane,truck,64-10-10,0679_eid_dnn_64-10-10_truck_10_n04467665_70694.png
barlow_twins,1,680,NaN,oven,bird,1-10-10,0680_eid_dnn_1-10-10_bird_10_n01843065_1179.png
barlow_twins,1,681,NaN,knife,truck,1-10-10,0681_eid_dnn_1-10-10_truck_10_n03417042_11475.png
barlow_twins,1,682,NaN,airplane,bicycle,64-10-10,0682_eid_dnn_64-10-10_bicycle_10_n02835271_6137.png
barlow_twins,1,683,NaN,bottle,airplane,16-10-10,0683_eid_dnn_16-10-10_airplane_10_n02690373_10001.png
barlow_twins,1,684,NaN,keyboard,cat,2-10-10,0684_eid_dnn_2-10-10_cat_10_n02124075_17347.png
barlow_twins,1,685,NaN,keyboard,keyboard,16-10-10,0685_eid_dnn_16-10-10_keyboard_10_n04505470_647.png
barlow_twins,1,686,NaN,bottle,bottle,4-10-10,0686_eid_dnn_4-10-10_bottle_10_n03983396_3028.png
barlow_twins,1,687,NaN,knife,car,1-10-10,0687_eid_dnn_1-10-10_car_10_n02814533_81090.png
barlow_twins,1,688,NaN,airplane,truck,32-10-10,0688_eid_dnn_32-10-10_truck_10_n03417042_18152.png
barlow_twins,1,689,NaN,car,bird,128-10-10,0689_eid_dnn_128-10-10_bird_10_n02033041_617.png
barlow_twins,1,690,NaN,elephant,cat,64-10-10,0690_eid_dnn_64-10-10_cat_10_n02123159_7270.png
barlow_twins,1,691,NaN,airplane,bird,64-10-10,0691_eid_dnn_64-10-10_bird_10_n01532829_20405.png
barlow_twins,1,692,NaN,car,bottle,32-10-10,0692_eid_dnn_32-10-10_bottle_10_n04557648_182.png
barlow_twins,1,693,NaN,car,car,64-10-10,0693_eid_dnn_64-10-10_car_10_n04285008_11745.png
barlow_twins,1,694,NaN,elephant,bear,4-10-10,0694_eid_dnn_4-10-10_bear_10_n02134084_38915.png
barlow_twins,1,695,NaN,truck,keyboard,8-10-10,0695_eid_dnn_8-10-10_keyboard_10_n03085013_21066.png
barlow_twins,1,696,NaN,oven,bear,2-10-10,0696_eid_dnn_2-10-10_bear_10_n02133161_6458.png
barlow_twins,1,697,NaN,car,truck,128-10-10,0697_eid_dnn_128-10-10_truck_10_n04467665_67909.png
barlow_twins,1,698,NaN,car,car,4-10-10,0698_eid_dnn_4-10-10_car_10_n04285008_12691.png
barlow_twins,1,699,NaN,truck,truck,8-10-10,0699_eid_dnn_8-10-10_truck_10_n04467665_69882.png
barlow_twins,1,700,NaN,elephant,cat,4-10-10,0700_eid_dnn_4-10-10_cat_10_n02123045_1902.png
barlow_twins,1,701,NaN,car,car,4-10-10,0701_eid_dnn_4-10-10_car_10_n03100240_5709.png
barlow_twins,1,702,NaN,car,bear,8-10-10,0702_eid_dnn_8-10-10_bear_10_n02134084_1938.png
barlow_twins,1,703,NaN,elephant,clock,2-10-10,0703_eid_dnn_2-10-10_clock_10_n02708093_6820.png
barlow_twins,1,704,NaN,knife,airplane,1-10-10,0704_eid_dnn_1-10-10_airplane_10_n02690373_5689.png
barlow_twins,1,705,NaN,elephant,elephant,16-10-10,0705_eid_dnn_16-10-10_elephant_10_n02504013_8563.png
barlow_twins,1,706,NaN,elephant,bottle,16-10-10,0706_eid_dnn_16-10-10_bottle_10_n03937543_7767.png
barlow_twins,1,707,NaN,airplane,keyboard,128-10-10,0707_eid_dnn_128-10-10_keyboard_10_n03085013_6862.png
barlow_twins,1,708,NaN,elephant,bottle,2-10-10,0708_eid_dnn_2-10-10_bottle_10_n03937543_1413.png
barlow_twins,1,709,NaN,airplane,truck,8-10-10,0709_eid_dnn_8-10-10_truck_10_n03796401_17201.png
barlow_twins,1,710,NaN,elephant,cat,32-10-10,0710_eid_dnn_32-10-10_cat_10_n02125311_13152.png
barlow_twins,1,711,NaN,car,truck,8-10-10,0711_eid_dnn_8-10-10_truck_10_n03796401_14203.png
barlow_twins,1,712,NaN,car,bird,32-10-10,0712_eid_dnn_32-10-10_bird_10_n01537544_3720.png
barlow_twins,1,713,NaN,airplane,boat,128-10-10,0713_eid_dnn_128-10-10_boat_10_n02951358_14346.png
barlow_twins,1,714,NaN,car,airplane,64-10-10,0714_eid_dnn_64-10-10_airplane_10_n02690373_757.png
barlow_twins,1,715,NaN,elephant,clock,16-10-10,0715_eid_dnn_16-10-10_clock_10_n04548280_8304.png
barlow_twins,1,716,NaN,elephant,knife,32-10-10,0716_eid_dnn_32-10-10_knife_10_n03041632_20697.png
barlow_twins,1,717,NaN,airplane,clock,128-10-10,0717_eid_dnn_128-10-10_clock_10_n02708093_7883.png
barlow_twins,1,718,NaN,knife,oven,4-10-10,0718_eid_dnn_4-10-10_oven_10_n04111531_14559.png
barlow_twins,1,719,NaN,car,oven,64-10-10,0719_eid_dnn_64-10-10_oven_10_n04111531_5906.png
barlow_twins,1,720,NaN,oven,knife,2-10-10,0720_eid_dnn_2-10-10_knife_10_n03041632_4279.png
barlow_twins,1,721,NaN,car,dog,128-10-10,0721_eid_dnn_128-10-10_dog_10_n02099601_7103.png
barlow_twins,1,722,NaN,airplane,oven,64-10-10,0722_eid_dnn_64-10-10_oven_10_n04111531_5351.png
barlow_twins,1,723,NaN,bottle,bicycle,4-10-10,0723_eid_dnn_4-10-10_bicycle_10_n03792782_7518.png
barlow_twins,1,724,NaN,car,bottle,32-10-10,0724_eid_dnn_32-10-10_bottle_10_n03983396_4321.png
barlow_twins,1,725,NaN,bear,cat,1-10-10,0725_eid_dnn_1-10-10_cat_10_n02123394_7782.png
barlow_twins,1,726,NaN,elephant,chair,64-10-10,0726_eid_dnn_64-10-10_chair_10_n02791124_3656.png
barlow_twins,1,727,NaN,airplane,truck,128-10-10,0727_eid_dnn_128-10-10_truck_10_n04467665_15235.png
barlow_twins,1,728,NaN,elephant,clock,128-10-10,0728_eid_dnn_128-10-10_clock_10_n02708093_7054.png
barlow_twins,1,729,NaN,elephant,elephant,8-10-10,0729_eid_dnn_8-10-10_elephant_10_n02504013_6737.png
barlow_twins,1,730,NaN,keyboard,boat,1-10-10,0730_eid_dnn_1-10-10_boat_10_n02951358_3452.png
barlow_twins,1,731,NaN,car,bird,32-10-10,0731_eid_dnn_32-10-10_bird_10_n01537544_5944.png
barlow_twins,1,732,NaN,car,car,64-10-10,0732_eid_dnn_64-10-10_car_10_n04285008_3280.png
barlow_twins,1,733,NaN,car,oven,8-10-10,0733_eid_dnn_8-10-10_oven_10_n04111531_24096.png
barlow_twins,1,734,NaN,elephant,oven,16-10-10,0734_eid_dnn_16-10-10_oven_10_n04111531_8181.png
barlow_twins,1,735,NaN,airplane,bird,128-10-10,0735_eid_dnn_128-10-10_bird_10_n01833805_8028.png
barlow_twins,1,736,NaN,airplane,cat,16-10-10,0736_eid_dnn_16-10-10_cat_10_n02123045_11955.png
barlow_twins,1,737,NaN,bottle,airplane,16-10-10,0737_eid_dnn_16-10-10_airplane_10_n02690373_9423.png
barlow_twins,1,738,NaN,bottle,knife,16-10-10,0738_eid_dnn_16-10-10_knife_10_n03041632_13478.png
barlow_twins,1,739,NaN,oven,bottle,2-10-10,0739_eid_dnn_2-10-10_bottle_10_n03983396_795.png
barlow_twins,1,740,NaN,car,bottle,128-10-10,0740_eid_dnn_128-10-10_bottle_10_n02823428_8079.png
barlow_twins,1,741,NaN,car,car,16-10-10,0741_eid_dnn_16-10-10_car_10_n03100240_17289.png
barlow_twins,1,742,NaN,chair,bear,4-10-10,0742_eid_dnn_4-10-10_bear_10_n02132136_1646.png
barlow_twins,1,743,NaN,bottle,boat,64-10-10,0743_eid_dnn_64-10-10_boat_10_n04273569_30203.png
barlow_twins,1,744,NaN,car,knife,128-10-10,0744_eid_dnn_128-10-10_knife_10_n03041632_47703.png
barlow_twins,1,745,NaN,knife,airplane,1-10-10,0745_eid_dnn_1-10-10_airplane_10_n02690373_3928.png
barlow_twins,1,746,NaN,elephant,dog,8-10-10,0746_eid_dnn_8-10-10_dog_10_n02093991_4977.png
barlow_twins,1,747,NaN,knife,dog,4-10-10,0747_eid_dnn_4-10-10_dog_10_n02113712_5816.png
barlow_twins,1,748,NaN,car,car,2-10-10,0748_eid_dnn_2-10-10_car_10_n02814533_62992.png
barlow_twins,1,749,NaN,elephant,bear,2-10-10,0749_eid_dnn_2-10-10_bear_10_n02134084_4818.png
barlow_twins,1,750,NaN,car,elephant,128-10-10,0750_eid_dnn_128-10-10_elephant_10_n02504458_5333.png
barlow_twins,1,751,NaN,keyboard,bottle,1-10-10,0751_eid_dnn_1-10-10_bottle_10_n04560804_17045.png
barlow_twins,1,752,NaN,oven,oven,1-10-10,0752_eid_dnn_1-10-10_oven_10_n04111531_3126.png
barlow_twins,1,753,NaN,keyboard,oven,16-10-10,0753_eid_dnn_16-10-10_oven_10_n04111531_13831.png
barlow_twins,1,754,NaN,elephant,truck,16-10-10,0754_eid_dnn_16-10-10_truck_10_n03417042_6941.png
barlow_twins,1,755,NaN,bottle,bird,16-10-10,0755_eid_dnn_16-10-10_bird_10_n02017213_1619.png
barlow_twins,1,756,NaN,elephant,cat,4-10-10,0756_eid_dnn_4-10-10_cat_10_n02123159_273.png
barlow_twins,1,757,NaN,airplane,chair,64-10-10,0757_eid_dnn_64-10-10_chair_10_n04429376_11956.png
barlow_twins,1,758,NaN,knife,boat,4-10-10,0758_eid_dnn_4-10-10_boat_10_n03344393_11788.png
barlow_twins,1,759,NaN,car,oven,16-10-10,0759_eid_dnn_16-10-10_oven_10_n04111531_8852.png
barlow_twins,1,760,NaN,airplane,bottle,32-10-10,0760_eid_dnn_32-10-10_bottle_10_n04591713_6024.png
barlow_twins,1,761,NaN,airplane,chair,16-10-10,0761_eid_dnn_16-10-10_chair_10_n03376595_5304.png
barlow_twins,1,762,NaN,car,truck,64-10-10,0762_eid_dnn_64-10-10_truck_10_n03417042_18072.png
barlow_twins,1,763,NaN,car,car,128-10-10,0763_eid_dnn_128-10-10_car_10_n04285008_8727.png
barlow_twins,1,764,NaN,knife,truck,1-10-10,0764_eid_dnn_1-10-10_truck_10_n03417042_29384.png
barlow_twins,1,765,NaN,keyboard,elephant,4-10-10,0765_eid_dnn_4-10-10_elephant_10_n02504013_14440.png
barlow_twins,1,766,NaN,oven,bird,4-10-10,0766_eid_dnn_4-10-10_bird_10_n02007558_16547.png
barlow_twins,1,767,NaN,elephant,knife,32-10-10,0767_eid_dnn_32-10-10_knife_10_n03041632_44212.png
barlow_twins,1,768,NaN,oven,elephant,2-10-10,0768_eid_dnn_2-10-10_elephant_10_n02504458_14308.png
barlow_twins,1,769,NaN,airplane,knife,8-10-10,0769_eid_dnn_8-10-10_knife_10_n03041632_31363.png
barlow_twins,1,770,NaN,car,airplane,8-10-10,0770_eid_dnn_8-10-10_airplane_10_n02690373_1563.png
barlow_twins,1,771,NaN,car,bear,128-10-10,0771_eid_dnn_128-10-10_bear_10_n02132136_1624.png
barlow_twins,1,772,NaN,airplane,oven,2-10-10,0772_eid_dnn_2-10-10_oven_10_n04111531_13625.png
barlow_twins,1,773,NaN,car,cat,4-10-10,0773_eid_dnn_4-10-10_cat_10_n02125311_27989.png
barlow_twins,1,774,NaN,airplane,knife,64-10-10,0774_eid_dnn_64-10-10_knife_10_n03041632_17091.png
barlow_twins,1,775,NaN,elephant,keyboard,8-10-10,0775_eid_dnn_8-10-10_keyboard_10_n03085013_18785.png
barlow_twins,1,776,NaN,bottle,clock,2-10-10,0776_eid_dnn_2-10-10_clock_10_n04548280_3610.png
barlow_twins,1,777,NaN,oven,knife,1-10-10,0777_eid_dnn_1-10-10_knife_10_n03041632_25656.png
barlow_twins,1,778,NaN,elephant,clock,4-10-10,0778_eid_dnn_4-10-10_clock_10_n04548280_10183.png
barlow_twins,1,779,NaN,car,cat,128-10-10,0779_eid_dnn_128-10-10_cat_10_n02123045_991.png
barlow_twins,1,780,NaN,airplane,boat,2-10-10,0780_eid_dnn_2-10-10_boat_10_n03344393_12262.png
barlow_twins,1,781,NaN,airplane,cat,32-10-10,0781_eid_dnn_32-10-10_cat_10_n02125311_57758.png
barlow_twins,1,782,NaN,oven,dog,2-10-10,0782_eid_dnn_2-10-10_dog_10_n02110806_5427.png
barlow_twins,1,783,NaN,car,car,2-10-10,0783_eid_dnn_2-10-10_car_10_n02814533_9812.png
barlow_twins,1,784,NaN,oven,chair,16-10-10,0784_eid_dnn_16-10-10_chair_10_n04429376_13751.png
barlow_twins,1,785,NaN,bottle,keyboard,128-10-10,0785_eid_dnn_128-10-10_keyboard_10_n03085013_3257.png
barlow_twins,1,786,NaN,keyboard,airplane,16-10-10,0786_eid_dnn_16-10-10_airplane_10_n02690373_4079.png
barlow_twins,1,787,NaN,airplane,keyboard,128-10-10,0787_eid_dnn_128-10-10_keyboard_10_n03085013_24963.png
barlow_twins,1,788,NaN,airplane,boat,32-10-10,0788_eid_dnn_32-10-10_boat_10_n03344393_6978.png
barlow_twins,1,789,NaN,keyboard,truck,64-10-10,0789_eid_dnn_64-10-10_truck_10_n03796401_10276.png
barlow_twins,1,790,NaN,keyboard,truck,8-10-10,0790_eid_dnn_8-10-10_truck_10_n03417042_19047.png
barlow_twins,1,791,NaN,elephant,knife,64-10-10,0791_eid_dnn_64-10-10_knife_10_n03041632_55953.png
barlow_twins,1,792,NaN,elephant,bird,4-10-10,0792_eid_dnn_4-10-10_bird_10_n01558993_4801.png
barlow_twins,1,793,NaN,airplane,bird,32-10-10,0793_eid_dnn_32-10-10_bird_10_n01824575_12101.png
barlow_twins,1,794,NaN,car,oven,128-10-10,0794_eid_dnn_128-10-10_oven_10_n04111531_12769.png
barlow_twins,1,795,NaN,airplane,bird,16-10-10,0795_eid_dnn_16-10-10_bird_10_n02009229_5090.png
barlow_twins,1,796,NaN,elephant,dog,32-10-10,0796_eid_dnn_32-10-10_dog_10_n02102040_2743.png
barlow_twins,1,797,NaN,oven,clock,4-10-10,0797_eid_dnn_4-10-10_clock_10_n02708093_6673.png
barlow_twins,1,798,NaN,car,cat,16-10-10,0798_eid_dnn_16-10-10_cat_10_n02123159_6954.png
barlow_twins,1,799,NaN,car,chair,32-10-10,0799_eid_dnn_32-10-10_chair_10_n04099969_25327.png
barlow_twins,1,800,NaN,airplane,truck,16-10-10,0800_eid_dnn_16-10-10_truck_10_n04467665_11776.png
barlow_twins,1,801,NaN,car,knife,32-10-10,0801_eid_dnn_32-10-10_knife_10_n03041632_26340.png
barlow_twins,1,802,NaN,airplane,oven,32-10-10,0802_eid_dnn_32-10-10_oven_10_n04111531_1362.png
barlow_twins,1,803,NaN,car,bicycle,8-10-10,0803_eid_dnn_8-10-10_bicycle_10_n02835271_419.png
barlow_twins,1,804,NaN,keyboard,bicycle,2-10-10,0804_eid_dnn_2-10-10_bicycle_10_n03792782_11720.png
barlow_twins,1,805,NaN,oven,elephant,4-10-10,0805_eid_dnn_4-10-10_elephant_10_n02504013_19769.png
barlow_twins,1,806,NaN,car,keyboard,64-10-10,0806_eid_dnn_64-10-10_keyboard_10_n03085013_19891.png
barlow_twins,1,807,NaN,car,airplane,64-10-10,0807_eid_dnn_64-10-10_airplane_10_n02690373_1862.png
barlow_twins,1,808,NaN,oven,bird,16-10-10,0808_eid_dnn_16-10-10_bird_10_n01616318_8488.png
barlow_twins,1,809,NaN,car,car,32-10-10,0809_eid_dnn_32-10-10_car_10_n03100240_20061.png
barlow_twins,1,810,NaN,elephant,chair,4-10-10,0810_eid_dnn_4-10-10_chair_10_n04099969_17866.png
barlow_twins,1,811,NaN,oven,elephant,8-10-10,0811_eid_dnn_8-10-10_elephant_10_n02504458_6931.png
barlow_twins,1,812,NaN,bottle,bear,16-10-10,0812_eid_dnn_16-10-10_bear_10_n02134418_2714.png
barlow_twins,1,813,NaN,elephant,dog,32-10-10,0813_eid_dnn_32-10-10_dog_10_n02111277_21812.png
barlow_twins,1,814,NaN,keyboard,dog,16-10-10,0814_eid_dnn_16-10-10_dog_10_n02086646_7544.png
barlow_twins,1,815,NaN,car,boat,16-10-10,0815_eid_dnn_16-10-10_boat_10_n02951358_33918.png
barlow_twins,1,816,NaN,airplane,oven,16-10-10,0816_eid_dnn_16-10-10_oven_10_n04111531_7130.png
barlow_twins,1,817,NaN,elephant,clock,32-10-10,0817_eid_dnn_32-10-10_clock_10_n04548280_5937.png
barlow_twins,1,818,NaN,airplane,bird,32-10-10,0818_eid_dnn_32-10-10_bird_10_n01819313_1422.png
barlow_twins,1,819,NaN,oven,elephant,4-10-10,0819_eid_dnn_4-10-10_elephant_10_n02504458_7342.png
barlow_twins,1,820,NaN,car,knife,128-10-10,0820_eid_dnn_128-10-10_knife_10_n03041632_7982.png
barlow_twins,1,821,NaN,airplane,airplane,8-10-10,0821_eid_dnn_8-10-10_airplane_10_n02690373_4586.png
barlow_twins,1,822,NaN,elephant,clock,16-10-10,0822_eid_dnn_16-10-10_clock_10_n02708093_4255.png
barlow_twins,1,823,NaN,airplane,oven,128-10-10,0823_eid_dnn_128-10-10_oven_10_n04111531_3191.png
barlow_twins,1,824,NaN,bear,airplane,1-10-10,0824_eid_dnn_1-10-10_airplane_10_n02690373_5465.png
barlow_twins,1,825,NaN,car,chair,64-10-10,0825_eid_dnn_64-10-10_chair_10_n02791124_373.png
barlow_twins,1,826,NaN,airplane,boat,32-10-10,0826_eid_dnn_32-10-10_boat_10_n03662601_1158.png
barlow_twins,1,827,NaN,elephant,elephant,64-10-10,0827_eid_dnn_64-10-10_elephant_10_n02504013_978.png
barlow_twins,1,828,NaN,airplane,chair,32-10-10,0828_eid_dnn_32-10-10_chair_10_n02791124_6492.png
barlow_twins,1,829,NaN,keyboard,car,1-10-10,0829_eid_dnn_1-10-10_car_10_n03100240_9892.png
barlow_twins,1,830,NaN,elephant,airplane,4-10-10,0830_eid_dnn_4-10-10_airplane_10_n02690373_1489.png
barlow_twins,1,831,NaN,truck,dog,128-10-10,0831_eid_dnn_128-10-10_dog_10_n02090622_7102.png
barlow_twins,1,832,NaN,chair,boat,2-10-10,0832_eid_dnn_2-10-10_boat_10_n04273569_72.png
barlow_twins,1,833,NaN,car,bicycle,2-10-10,0833_eid_dnn_2-10-10_bicycle_10_n02835271_2625.png
barlow_twins,1,834,NaN,airplane,cat,64-10-10,0834_eid_dnn_64-10-10_cat_10_n02123159_15664.png
barlow_twins,1,835,NaN,oven,clock,1-10-10,0835_eid_dnn_1-10-10_clock_10_n04548280_4562.png
barlow_twins,1,836,NaN,oven,bottle,2-10-10,0836_eid_dnn_2-10-10_bottle_10_n04591713_6905.png
barlow_twins,1,837,NaN,truck,airplane,4-10-10,0837_eid_dnn_4-10-10_airplane_10_n02690373_166.png
barlow_twins,1,838,NaN,oven,oven,2-10-10,0838_eid_dnn_2-10-10_oven_10_n04111531_3193.png
barlow_twins,1,839,NaN,bottle,elephant,16-10-10,0839_eid_dnn_16-10-10_elephant_10_n02504458_5274.png
barlow_twins,1,840,NaN,car,keyboard,64-10-10,0840_eid_dnn_64-10-10_keyboard_10_n04505470_5131.png
barlow_twins,1,841,NaN,truck,airplane,2-10-10,0841_eid_dnn_2-10-10_airplane_10_n02690373_19074.png
barlow_twins,1,842,NaN,bottle,bottle,64-10-10,0842_eid_dnn_64-10-10_bottle_10_n03983396_16257.png
barlow_twins,1,843,NaN,keyboard,bear,32-10-10,0843_eid_dnn_32-10-10_bear_10_n02134418_3470.png
barlow_twins,1,844,NaN,keyboard,bear,8-10-10,0844_eid_dnn_8-10-10_bear_10_n02132136_3196.png
barlow_twins,1,845,NaN,elephant,bear,128-10-10,0845_eid_dnn_128-10-10_bear_10_n02133161_10184.png
barlow_twins,1,846,NaN,elephant,truck,128-10-10,0846_eid_dnn_128-10-10_truck_10_n03417042_3351.png
barlow_twins,1,847,NaN,airplane,bird,128-10-10,0847_eid_dnn_128-10-10_bird_10_n02013706_6676.png
barlow_twins,1,848,NaN,airplane,airplane,128-10-10,0848_eid_dnn_128-10-10_airplane_10_n02690373_9946.png
barlow_twins,1,849,NaN,airplane,car,32-10-10,0849_eid_dnn_32-10-10_car_10_n04285008_8838.png
barlow_twins,1,850,NaN,airplane,car,128-10-10,0850_eid_dnn_128-10-10_car_10_n02814533_40350.png
barlow_twins,1,851,NaN,knife,cat,1-10-10,0851_eid_dnn_1-10-10_cat_10_n02123159_12734.png
barlow_twins,1,852,NaN,knife,airplane,2-10-10,0852_eid_dnn_2-10-10_airplane_10_n02690373_17063.png
barlow_twins,1,853,NaN,elephant,bottle,4-10-10,0853_eid_dnn_4-10-10_bottle_10_n04560804_31443.png
barlow_twins,1,854,NaN,knife,keyboard,2-10-10,0854_eid_dnn_2-10-10_keyboard_10_n03085013_22713.png
barlow_twins,1,855,NaN,keyboard,truck,1-10-10,0855_eid_dnn_1-10-10_truck_10_n04467665_21969.png
barlow_twins,1,856,NaN,car,bear,16-10-10,0856_eid_dnn_16-10-10_bear_10_n02134084_712.png
barlow_twins,1,857,NaN,car,oven,128-10-10,0857_eid_dnn_128-10-10_oven_10_n04111531_15635.png
barlow_twins,1,858,NaN,bottle,keyboard,128-10-10,0858_eid_dnn_128-10-10_keyboard_10_n03085013_5568.png
barlow_twins,1,859,NaN,airplane,chair,128-10-10,0859_eid_dnn_128-10-10_chair_10_n02791124_1059.png
barlow_twins,1,860,NaN,truck,airplane,4-10-10,0860_eid_dnn_4-10-10_airplane_10_n02690373_4866.png
barlow_twins,1,861,NaN,bottle,dog,128-10-10,0861_eid_dnn_128-10-10_dog_10_n02086910_13835.png
barlow_twins,1,862,NaN,elephant,knife,1-10-10,0862_eid_dnn_1-10-10_knife_10_n03041632_9488.png
barlow_twins,1,863,NaN,truck,airplane,2-10-10,0863_eid_dnn_2-10-10_airplane_10_n02690373_9170.png
barlow_twins,1,864,NaN,car,boat,8-10-10,0864_eid_dnn_8-10-10_boat_10_n03662601_12323.png
barlow_twins,1,865,NaN,airplane,boat,128-10-10,0865_eid_dnn_128-10-10_boat_10_n02951358_3188.png
barlow_twins,1,866,NaN,bottle,cat,64-10-10,0866_eid_dnn_64-10-10_cat_10_n02123159_4051.png
barlow_twins,1,867,NaN,car,airplane,64-10-10,0867_eid_dnn_64-10-10_airplane_10_n02690373_10931.png
barlow_twins,1,868,NaN,keyboard,clock,16-10-10,0868_eid_dnn_16-10-10_clock_10_n04548280_6989.png
barlow_twins,1,869,NaN,airplane,car,64-10-10,0869_eid_dnn_64-10-10_car_10_n02814533_52045.png
barlow_twins,1,870,NaN,truck,chair,1-10-10,0870_eid_dnn_1-10-10_chair_10_n04099969_5524.png
barlow_twins,1,871,NaN,elephant,clock,128-10-10,0871_eid_dnn_128-10-10_clock_10_n04548280_8162.png
barlow_twins,1,872,NaN,knife,bear,1-10-10,0872_eid_dnn_1-10-10_bear_10_n02132136_7796.png
barlow_twins,1,873,NaN,car,car,4-10-10,0873_eid_dnn_4-10-10_car_10_n04285008_10442.png
barlow_twins,1,874,NaN,keyboard,bottle,16-10-10,0874_eid_dnn_16-10-10_bottle_10_n04579145_5777.png
barlow_twins,1,875,NaN,car,bicycle,1-10-10,0875_eid_dnn_1-10-10_bicycle_10_n03792782_13324.png
barlow_twins,1,876,NaN,knife,bird,1-10-10,0876_eid_dnn_1-10-10_bird_10_n01860187_18561.png
barlow_twins,1,877,NaN,truck,airplane,1-10-10,0877_eid_dnn_1-10-10_airplane_10_n02690373_13324.png
barlow_twins,1,878,NaN,oven,knife,1-10-10,0878_eid_dnn_1-10-10_knife_10_n03041632_89391.png
barlow_twins,1,879,NaN,car,car,16-10-10,0879_eid_dnn_16-10-10_car_10_n02814533_69750.png
barlow_twins,1,880,NaN,airplane,car,8-10-10,0880_eid_dnn_8-10-10_car_10_n04285008_12589.png
barlow_twins,1,881,NaN,keyboard,knife,1-10-10,0881_eid_dnn_1-10-10_knife_10_n03041632_98864.png
barlow_twins,1,882,NaN,keyboard,cat,4-10-10,0882_eid_dnn_4-10-10_cat_10_n02123159_491.png
barlow_twins,1,883,NaN,elephant,bottle,4-10-10,0883_eid_dnn_4-10-10_bottle_10_n02823428_4172.png
barlow_twins,1,884,NaN,elephant,elephant,16-10-10,0884_eid_dnn_16-10-10_elephant_10_n02504013_17391.png
barlow_twins,1,885,NaN,airplane,cat,32-10-10,0885_eid_dnn_32-10-10_cat_10_n02125311_14156.png
barlow_twins,1,886,NaN,airplane,bicycle,8-10-10,0886_eid_dnn_8-10-10_bicycle_10_n03792782_17430.png
barlow_twins,1,887,NaN,oven,oven,1-10-10,0887_eid_dnn_1-10-10_oven_10_n04111531_6172.png
barlow_twins,1,888,NaN,elephant,chair,1-10-10,0888_eid_dnn_1-10-10_chair_10_n04099969_24378.png
barlow_twins,1,889,NaN,elephant,boat,4-10-10,0889_eid_dnn_4-10-10_boat_10_n03662601_10589.png
barlow_twins,1,890,NaN,airplane,truck,16-10-10,0890_eid_dnn_16-10-10_truck_10_n03417042_10117.png
barlow_twins,1,891,NaN,elephant,clock,64-10-10,0891_eid_dnn_64-10-10_clock_10_n03196217_8072.png
barlow_twins,1,892,NaN,car,bottle,64-10-10,0892_eid_dnn_64-10-10_bottle_10_n04560804_2776.png
barlow_twins,1,893,NaN,knife,dog,2-10-10,0893_eid_dnn_2-10-10_dog_10_n02102177_7637.png
barlow_twins,1,894,NaN,oven,knife,2-10-10,0894_eid_dnn_2-10-10_knife_10_n03041632_7064.png
barlow_twins,1,895,NaN,bottle,boat,2-10-10,0895_eid_dnn_2-10-10_boat_10_n02951358_29724.png
barlow_twins,1,896,NaN,oven,oven,1-10-10,0896_eid_dnn_1-10-10_oven_10_n04111531_10436.png
barlow_twins,1,897,NaN,bottle,elephant,32-10-10,0897_eid_dnn_32-10-10_elephant_10_n02504458_11618.png
barlow_twins,1,898,NaN,keyboard,dog,8-10-10,0898_eid_dnn_8-10-10_dog_10_n02086079_15773.png
barlow_twins,1,899,NaN,airplane,airplane,32-10-10,0899_eid_dnn_32-10-10_airplane_10_n02690373_6536.png
barlow_twins,1,900,NaN,bottle,truck,32-10-10,0900_eid_dnn_32-10-10_truck_10_n03796401_1213.png
barlow_twins,1,901,NaN,airplane,knife,8-10-10,0901_eid_dnn_8-10-10_knife_10_n03041632_49363.png
barlow_twins,1,902,NaN,car,airplane,32-10-10,0902_eid_dnn_32-10-10_airplane_10_n02690373_6831.png
barlow_twins,1,903,NaN,oven,bear,2-10-10,0903_eid_dnn_2-10-10_bear_10_n02134418_551.png
barlow_twins,1,904,NaN,elephant,knife,32-10-10,0904_eid_dnn_32-10-10_knife_10_n03041632_93026.png
barlow_twins,1,905,NaN,airplane,chair,32-10-10,0905_eid_dnn_32-10-10_chair_10_n04099969_18744.png
barlow_twins,1,906,NaN,airplane,oven,128-10-10,0906_eid_dnn_128-10-10_oven_10_n04111531_520.png
barlow_twins,1,907,NaN,bottle,chair,64-10-10,0907_eid_dnn_64-10-10_chair_10_n02791124_5845.png
barlow_twins,1,908,NaN,bottle,elephant,16-10-10,0908_eid_dnn_16-10-10_elephant_10_n02504458_361.png
barlow_twins,1,909,NaN,oven,knife,4-10-10,0909_eid_dnn_4-10-10_knife_10_n03041632_35365.png
barlow_twins,1,910,NaN,chair,bicycle,4-10-10,0910_eid_dnn_4-10-10_bicycle_10_n03792782_15627.png
barlow_twins,1,911,NaN,bottle,dog,64-10-10,0911_eid_dnn_64-10-10_dog_10_n02109525_46113.png
barlow_twins,1,912,NaN,elephant,clock,128-10-10,0912_eid_dnn_128-10-10_clock_10_n04548280_8841.png
barlow_twins,1,913,NaN,elephant,bottle,8-10-10,0913_eid_dnn_8-10-10_bottle_10_n03937543_4763.png
barlow_twins,1,914,NaN,airplane,oven,8-10-10,0914_eid_dnn_8-10-10_oven_10_n04111531_3159.png
barlow_twins,1,915,NaN,elephant,dog,8-10-10,0915_eid_dnn_8-10-10_dog_10_n02097474_15157.png
barlow_twins,1,916,NaN,keyboard,boat,16-10-10,0916_eid_dnn_16-10-10_boat_10_n04273569_31564.png
barlow_twins,1,917,NaN,airplane,cat,128-10-10,0917_eid_dnn_128-10-10_cat_10_n02124075_10566.png
barlow_twins,1,918,NaN,knife,cat,4-10-10,0918_eid_dnn_4-10-10_cat_10_n02123597_2030.png
barlow_twins,1,919,NaN,airplane,dog,32-10-10,0919_eid_dnn_32-10-10_dog_10_n02088466_9891.png
barlow_twins,1,920,NaN,knife,dog,8-10-10,0920_eid_dnn_8-10-10_dog_10_n02086646_6773.png
barlow_twins,1,921,NaN,bottle,clock,32-10-10,0921_eid_dnn_32-10-10_clock_10_n03196217_3951.png
barlow_twins,1,922,NaN,knife,elephant,1-10-10,0922_eid_dnn_1-10-10_elephant_10_n02504013_21311.png
barlow_twins,1,923,NaN,knife,dog,1-10-10,0923_eid_dnn_1-10-10_dog_10_n02086240_1567.png
barlow_twins,1,924,NaN,bottle,bird,64-10-10,0924_eid_dnn_64-10-10_bird_10_n01860187_15592.png
barlow_twins,1,925,NaN,airplane,truck,128-10-10,0925_eid_dnn_128-10-10_truck_10_n04467665_4165.png
barlow_twins,1,926,NaN,oven,dog,1-10-10,0926_eid_dnn_1-10-10_dog_10_n02095570_11450.png
barlow_twins,1,927,NaN,car,truck,16-10-10,0927_eid_dnn_16-10-10_truck_10_n03417042_26971.png
barlow_twins,1,928,NaN,bottle,bear,1-10-10,0928_eid_dnn_1-10-10_bear_10_n02133161_2970.png
barlow_twins,1,929,NaN,elephant,boat,2-10-10,0929_eid_dnn_2-10-10_boat_10_n03344393_2254.png
barlow_twins,1,930,NaN,airplane,airplane,32-10-10,0930_eid_dnn_32-10-10_airplane_10_n02690373_7908.png
barlow_twins,1,931,NaN,car,keyboard,128-10-10,0931_eid_dnn_128-10-10_keyboard_10_n03085013_19882.png
barlow_twins,1,932,NaN,elephant,clock,1-10-10,0932_eid_dnn_1-10-10_clock_10_n04548280_748.png
barlow_twins,1,933,NaN,car,car,64-10-10,0933_eid_dnn_64-10-10_car_10_n04285008_6102.png
barlow_twins,1,934,NaN,airplane,chair,128-10-10,0934_eid_dnn_128-10-10_chair_10_n02791124_3241.png
barlow_twins,1,935,NaN,elephant,clock,1-10-10,0935_eid_dnn_1-10-10_clock_10_n02708093_3996.png
barlow_twins,1,936,NaN,airplane,bird,128-10-10,0936_eid_dnn_128-10-10_bird_10_n01843065_5080.png
barlow_twins,1,937,NaN,knife,bird,2-10-10,0937_eid_dnn_2-10-10_bird_10_n02027492_10281.png
barlow_twins,1,938,NaN,airplane,keyboard,2-10-10,0938_eid_dnn_2-10-10_keyboard_10_n03085013_23552.png
barlow_twins,1,939,NaN,bottle,chair,8-10-10,0939_eid_dnn_8-10-10_chair_10_n02791124_5319.png
barlow_twins,1,940,NaN,elephant,knife,2-10-10,0940_eid_dnn_2-10-10_knife_10_n03041632_927.png
barlow_twins,1,941,NaN,car,bird,16-10-10,0941_eid_dnn_16-10-10_bird_10_n02018207_16716.png
barlow_twins,1,942,NaN,airplane,bird,32-10-10,0942_eid_dnn_32-10-10_bird_10_n01622779_66.png
barlow_twins,1,943,NaN,airplane,bicycle,64-10-10,0943_eid_dnn_64-10-10_bicycle_10_n03792782_9004.png
barlow_twins,1,944,NaN,bottle,bicycle,4-10-10,0944_eid_dnn_4-10-10_bicycle_10_n03792782_4207.png
barlow_twins,1,945,NaN,car,oven,64-10-10,0945_eid_dnn_64-10-10_oven_10_n04111531_5038.png
barlow_twins,1,946,NaN,keyboard,bicycle,2-10-10,0946_eid_dnn_2-10-10_bicycle_10_n02835271_15038.png
barlow_twins,1,947,NaN,oven,clock,1-10-10,0947_eid_dnn_1-10-10_clock_10_n02708093_57.png
barlow_twins,1,948,NaN,truck,bird,2-10-10,0948_eid_dnn_2-10-10_bird_10_n02009912_20610.png
barlow_twins,1,949,NaN,car,bird,8-10-10,0949_eid_dnn_8-10-10_bird_10_n02002724_1484.png
barlow_twins,1,950,NaN,airplane,car,32-10-10,0950_eid_dnn_32-10-10_car_10_n02814533_42059.png
barlow_twins,1,951,NaN,oven,elephant,2-10-10,0951_eid_dnn_2-10-10_elephant_10_n02504013_10390.png
barlow_twins,1,952,NaN,airplane,bear,16-10-10,0952_eid_dnn_16-10-10_bear_10_n02133161_7080.png
barlow_twins,1,953,NaN,airplane,keyboard,8-10-10,0953_eid_dnn_8-10-10_keyboard_10_n04505470_4616.png
barlow_twins,1,954,NaN,car,bicycle,32-10-10,0954_eid_dnn_32-10-10_bicycle_10_n02835271_19834.png
barlow_twins,1,955,NaN,car,bottle,32-10-10,0955_eid_dnn_32-10-10_bottle_10_n04591713_7561.png
barlow_twins,1,956,NaN,airplane,keyboard,32-10-10,0956_eid_dnn_32-10-10_keyboard_10_n04505470_5173.png
barlow_twins,1,957,NaN,keyboard,car,1-10-10,0957_eid_dnn_1-10-10_car_10_n02814533_13977.png
barlow_twins,1,958,NaN,elephant,knife,2-10-10,0958_eid_dnn_2-10-10_knife_10_n03041632_37949.png
barlow_twins,1,959,NaN,car,bird,128-10-10,0959_eid_dnn_128-10-10_bird_10_n01582220_359.png
barlow_twins,1,960,NaN,bottle,truck,8-10-10,0960_eid_dnn_8-10-10_truck_10_n03796401_24341.png
barlow_twins,1,961,NaN,knife,bottle,16-10-10,0961_eid_dnn_16-10-10_bottle_10_n02823428_4282.png
barlow_twins,1,962,NaN,airplane,airplane,128-10-10,0962_eid_dnn_128-10-10_airplane_10_n02690373_9963.png
barlow_twins,1,963,NaN,elephant,elephant,1-10-10,0963_eid_dnn_1-10-10_elephant_10_n02504013_130.png
barlow_twins,1,964,NaN,airplane,keyboard,64-10-10,0964_eid_dnn_64-10-10_keyboard_10_n03085013_20218.png
barlow_twins,1,965,NaN,elephant,bear,8-10-10,0965_eid_dnn_8-10-10_bear_10_n02132136_2203.png
barlow_twins,1,966,NaN,knife,keyboard,1-10-10,0966_eid_dnn_1-10-10_keyboard_10_n04505470_4668.png
barlow_twins,1,967,NaN,keyboard,knife,1-10-10,0967_eid_dnn_1-10-10_knife_10_n03041632_16172.png
barlow_twins,1,968,NaN,airplane,keyboard,16-10-10,0968_eid_dnn_16-10-10_keyboard_10_n04505470_1067.png
barlow_twins,1,969,NaN,elephant,dog,32-10-10,0969_eid_dnn_32-10-10_dog_10_n02107908_2313.png
barlow_twins,1,970,NaN,car,bear,128-10-10,0970_eid_dnn_128-10-10_bear_10_n02132136_3873.png
barlow_twins,1,971,NaN,oven,boat,1-10-10,0971_eid_dnn_1-10-10_boat_10_n03344393_6103.png
barlow_twins,1,972,NaN,airplane,chair,128-10-10,0972_eid_dnn_128-10-10_chair_10_n02791124_15934.png
barlow_twins,1,973,NaN,airplane,boat,128-10-10,0973_eid_dnn_128-10-10_boat_10_n03662601_2438.png
barlow_twins,1,974,NaN,keyboard,cat,16-10-10,0974_eid_dnn_16-10-10_cat_10_n02123597_14771.png
barlow_twins,1,975,NaN,bottle,knife,16-10-10,0975_eid_dnn_16-10-10_knife_10_n03041632_37513.png
barlow_twins,1,976,NaN,airplane,bicycle,64-10-10,0976_eid_dnn_64-10-10_bicycle_10_n02835271_15617.png
barlow_twins,1,977,NaN,elephant,dog,4-10-10,0977_eid_dnn_4-10-10_dog_10_n02102973_13.png
barlow_twins,1,978,NaN,car,boat,64-10-10,0978_eid_dnn_64-10-10_boat_10_n03344393_4012.png
barlow_twins,1,979,NaN,elephant,clock,16-10-10,0979_eid_dnn_16-10-10_clock_10_n02708093_3365.png
barlow_twins,1,980,NaN,car,truck,2-10-10,0980_eid_dnn_2-10-10_truck_10_n04467665_20700.png
barlow_twins,1,981,NaN,airplane,oven,4-10-10,0981_eid_dnn_4-10-10_oven_10_n04111531_3076.png
barlow_twins,1,982,NaN,airplane,car,8-10-10,0982_eid_dnn_8-10-10_car_10_n02814533_39807.png
barlow_twins,1,983,NaN,car,truck,64-10-10,0983_eid_dnn_64-10-10_truck_10_n04467665_66624.png
barlow_twins,1,984,NaN,airplane,truck,16-10-10,0984_eid_dnn_16-10-10_truck_10_n04467665_30504.png
barlow_twins,1,985,NaN,bear,car,2-10-10,0985_eid_dnn_2-10-10_car_10_n03100240_7066.png
barlow_twins,1,986,NaN,car,oven,128-10-10,0986_eid_dnn_128-10-10_oven_10_n04111531_9304.png
barlow_twins,1,987,NaN,airplane,airplane,64-10-10,0987_eid_dnn_64-10-10_airplane_10_n02690373_4845.png
barlow_twins,1,988,NaN,cat,boat,4-10-10,0988_eid_dnn_4-10-10_boat_10_n03662601_81.png
barlow_twins,1,989,NaN,car,elephant,64-10-10,0989_eid_dnn_64-10-10_elephant_10_n02504458_1985.png
barlow_twins,1,990,NaN,bear,cat,2-10-10,0990_eid_dnn_2-10-10_cat_10_n02124075_5953.png
barlow_twins,1,991,NaN,truck,bird,2-10-10,0991_eid_dnn_2-10-10_bird_10_n02009912_18125.png
barlow_twins,1,992,NaN,airplane,clock,16-10-10,0992_eid_dnn_16-10-10_clock_10_n04548280_3541.png
barlow_twins,1,993,NaN,knife,clock,4-10-10,0993_eid_dnn_4-10-10_clock_10_n04548280_2778.png
barlow_twins,1,994,NaN,elephant,clock,4-10-10,0994_eid_dnn_4-10-10_clock_10_n04548280_4275.png
barlow_twins,1,995,NaN,elephant,knife,32-10-10,0995_eid_dnn_32-10-10_knife_10_n03041632_3717.png
barlow_twins,1,996,NaN,elephant,clock,8-10-10,0996_eid_dnn_8-10-10_clock_10_n03196217_6831.png
barlow_twins,1,997,NaN,oven,oven,2-10-10,0997_eid_dnn_2-10-10_oven_10_n04111531_5218.png
barlow_twins,1,998,NaN,clock,truck,8-10-10,0998_eid_dnn_8-10-10_truck_10_n03796401_1150.png
barlow_twins,1,999,NaN,airplane,oven,8-10-10,0999_eid_dnn_8-10-10_oven_10_n04111531_4809.png
barlow_twins,1,1000,NaN,oven,airplane,16-10-10,1000_eid_dnn_16-10-10_airplane_10_n02690373_3100.png
barlow_twins,1,1001,NaN,elephant,bird,8-10-10,1001_eid_dnn_8-10-10_bird_10_n01514859_1421.png
barlow_twins,1,1002,NaN,keyboard,boat,16-10-10,1002_eid_dnn_16-10-10_boat_10_n04273569_17671.png
barlow_twins,1,1003,NaN,elephant,dog,2-10-10,1003_eid_dnn_2-10-10_dog_10_n02085936_2225.png
barlow_twins,1,1004,NaN,car,elephant,32-10-10,1004_eid_dnn_32-10-10_elephant_10_n02504458_5641.png
barlow_twins,1,1005,NaN,airplane,car,64-10-10,1005_eid_dnn_64-10-10_car_10_n03100240_3267.png
barlow_twins,1,1006,NaN,keyboard,chair,64-10-10,1006_eid_dnn_64-10-10_chair_10_n04429376_6147.png
barlow_twins,1,1007,NaN,car,bear,64-10-10,1007_eid_dnn_64-10-10_bear_10_n02132136_20009.png
barlow_twins,1,1008,NaN,bottle,bicycle,4-10-10,1008_eid_dnn_4-10-10_bicycle_10_n02835271_17326.png
barlow_twins,1,1009,NaN,airplane,clock,128-10-10,1009_eid_dnn_128-10-10_clock_10_n03196217_11714.png
barlow_twins,1,1010,NaN,knife,bear,2-10-10,1010_eid_dnn_2-10-10_bear_10_n02134418_8516.png
barlow_twins,1,1011,NaN,car,boat,64-10-10,1011_eid_dnn_64-10-10_boat_10_n04612504_14480.png
barlow_twins,1,1012,NaN,airplane,keyboard,4-10-10,1012_eid_dnn_4-10-10_keyboard_10_n03085013_6978.png
barlow_twins,1,1013,NaN,elephant,chair,4-10-10,1013_eid_dnn_4-10-10_chair_10_n04099969_1792.png
barlow_twins,1,1014,NaN,airplane,dog,4-10-10,1014_eid_dnn_4-10-10_dog_10_n02097130_4088.png
barlow_twins,1,1015,NaN,airplane,truck,32-10-10,1015_eid_dnn_32-10-10_truck_10_n03417042_28832.png
barlow_twins,1,1016,NaN,keyboard,keyboard,2-10-10,1016_eid_dnn_2-10-10_keyboard_10_n03085013_24087.png
barlow_twins,1,1017,NaN,elephant,chair,1-10-10,1017_eid_dnn_1-10-10_chair_10_n03376595_14729.png
barlow_twins,1,1018,NaN,airplane,airplane,2-10-10,1018_eid_dnn_2-10-10_airplane_10_n02690373_9247.png
barlow_twins,1,1019,NaN,airplane,car,128-10-10,1019_eid_dnn_128-10-10_car_10_n04285008_2653.png
barlow_twins,1,1020,NaN,oven,keyboard,2-10-10,1020_eid_dnn_2-10-10_keyboard_10_n04505470_4624.png
barlow_twins,1,1021,NaN,airplane,clock,128-10-10,1021_eid_dnn_128-10-10_clock_10_n02708093_2845.png
barlow_twins,1,1022,NaN,elephant,airplane,4-10-10,1022_eid_dnn_4-10-10_airplane_10_n02690373_3859.png
barlow_twins,1,1023,NaN,elephant,elephant,8-10-10,1023_eid_dnn_8-10-10_elephant_10_n02504458_4448.png
barlow_twins,1,1024,NaN,knife,bottle,2-10-10,1024_eid_dnn_2-10-10_bottle_10_n04557648_4008.png
barlow_twins,1,1025,NaN,keyboard,chair,8-10-10,1025_eid_dnn_8-10-10_chair_10_n03376595_1044.png
barlow_twins,1,1026,NaN,elephant,clock,32-10-10,1026_eid_dnn_32-10-10_clock_10_n04548280_7354.png
barlow_twins,1,1027,NaN,airplane,bicycle,16-10-10,1027_eid_dnn_16-10-10_bicycle_10_n03792782_7688.png
barlow_twins,1,1028,NaN,knife,keyboard,1-10-10,1028_eid_dnn_1-10-10_keyboard_10_n04505470_4702.png
barlow_twins,1,1029,NaN,car,bottle,16-10-10,1029_eid_dnn_16-10-10_bottle_10_n03983396_486.png
barlow_twins,1,1030,NaN,airplane,bicycle,128-10-10,1030_eid_dnn_128-10-10_bicycle_10_n03792782_18687.png
barlow_twins,1,1031,NaN,oven,truck,2-10-10,1031_eid_dnn_2-10-10_truck_10_n04467665_55499.png
barlow_twins,1,1032,NaN,car,airplane,1-10-10,1032_eid_dnn_1-10-10_airplane_10_n02690373_10210.png
barlow_twins,1,1033,NaN,car,airplane,16-10-10,1033_eid_dnn_16-10-10_airplane_10_n02690373_10402.png
barlow_twins,1,1034,NaN,bottle,bottle,32-10-10,1034_eid_dnn_32-10-10_bottle_10_n04579145_2303.png
barlow_twins,1,1035,NaN,keyboard,elephant,8-10-10,1035_eid_dnn_8-10-10_elephant_10_n02504013_6120.png
barlow_twins,1,1036,NaN,bottle,bear,32-10-10,1036_eid_dnn_32-10-10_bear_10_n02134418_4050.png
barlow_twins,1,1037,NaN,elephant,elephant,4-10-10,1037_eid_dnn_4-10-10_elephant_10_n02504458_6185.png
barlow_twins,1,1038,NaN,car,boat,32-10-10,1038_eid_dnn_32-10-10_boat_10_n03344393_897.png
barlow_twins,1,1039,NaN,car,dog,64-10-10,1039_eid_dnn_64-10-10_dog_10_n02099429_1118.png
barlow_twins,1,1040,NaN,bottle,car,1-10-10,1040_eid_dnn_1-10-10_car_10_n03100240_9019.png
barlow_twins,1,1041,NaN,car,airplane,32-10-10,1041_eid_dnn_32-10-10_airplane_10_n02690373_4588.png
barlow_twins,1,1042,NaN,keyboard,cat,4-10-10,1042_eid_dnn_4-10-10_cat_10_n02124075_14881.png
barlow_twins,1,1043,NaN,elephant,bottle,128-10-10,1043_eid_dnn_128-10-10_bottle_10_n04557648_6010.png
