subj,session,trial,rt,object_response,category,condition,imagename
barlow_twins,1,1,NaN,keyboard,oven,16-0-10,0001_eid_dnn_16-0-10_oven_10_n04111531_13542.png
barlow_twins,1,2,NaN,car,car,4-0-10,0002_eid_dnn_4-0-10_car_10_n03100240_5570.png
barlow_twins,1,3,NaN,bottle,bird,8-0-10,0003_eid_dnn_8-0-10_bird_10_n01820546_4847.png
barlow_twins,1,4,NaN,elephant,bear,32-0-10,0004_eid_dnn_32-0-10_bear_10_n02133161_15561.png
barlow_twins,1,5,NaN,oven,bird,64-0-10,0005_eid_dnn_64-0-10_bird_10_n01531178_9584.png
barlow_twins,1,6,NaN,airplane,bicycle,8-0-10,0006_eid_dnn_8-0-10_bicycle_10_n02835271_18846.png
barlow_twins,1,7,NaN,keyboard,oven,4-0-10,0007_eid_dnn_4-0-10_oven_10_n04111531_73.png
barlow_twins,1,8,NaN,keyboard,clock,2-0-10,0008_eid_dnn_2-0-10_clock_10_n04548280_6159.png
barlow_twins,1,9,NaN,oven,chair,32-0-10,0009_eid_dnn_32-0-10_chair_10_n03376595_9395.png
barlow_twins,1,10,NaN,oven,bicycle,64-0-10,0010_eid_dnn_64-0-10_bicycle_10_n02835271_1918.png
barlow_twins,1,11,NaN,airplane,bicycle,128-0-10,0011_eid_dnn_128-0-10_bicycle_10_n02835271_42320.png
barlow_twins,1,12,NaN,oven,elephant,1-0-10,0012_eid_dnn_1-0-10_elephant_10_n02504458_3628.png
barlow_twins,1,13,NaN,oven,knife,64-0-10,0013_eid_dnn_64-0-10_knife_10_n03041632_86554.png
barlow_twins,1,14,NaN,keyboard,cat,8-0-10,0014_eid_dnn_8-0-10_cat_10_n02123394_1726.png
barlow_twins,1,15,NaN,bottle,cat,32-0-10,0015_eid_dnn_32-0-10_cat_10_n02123597_6721.png
barlow_twins,1,16,NaN,oven,oven,2-0-10,0016_eid_dnn_2-0-10_oven_10_n04111531_21869.png
barlow_twins,1,17,NaN,keyboard,bear,4-0-10,0017_eid_dnn_4-0-10_bear_10_n02134084_2949.png
barlow_twins,1,18,NaN,keyboard,truck,8-0-10,0018_eid_dnn_8-0-10_truck_10_n03417042_18743.png
barlow_twins,1,19,NaN,clock,bird,16-0-10,0019_eid_dnn_16-0-10_bird_10_n01616318_4246.png
barlow_twins,1,20,NaN,elephant,bicycle,8-0-10,0020_eid_dnn_8-0-10_bicycle_10_n03792782_66771.png
barlow_twins,1,21,NaN,airplane,keyboard,2-0-10,0021_eid_dnn_2-0-10_keyboard_10_n04505470_3531.png
barlow_twins,1,22,NaN,knife,clock,8-0-10,0022_eid_dnn_8-0-10_clock_10_n04548280_6463.png
barlow_twins,1,23,NaN,keyboard,keyboard,16-0-10,0023_eid_dnn_16-0-10_keyboard_10_n04505470_4974.png
barlow_twins,1,24,NaN,chair,chair,4-0-10,0024_eid_dnn_4-0-10_chair_10_n03376595_360.png
barlow_twins,1,25,NaN,elephant,dog,16-0-10,0025_eid_dnn_16-0-10_dog_10_n02097130_2752.png
barlow_twins,1,26,NaN,keyboard,bicycle,2-0-10,0026_eid_dnn_2-0-10_bicycle_10_n02835271_3406.png
barlow_twins,1,27,NaN,car,bottle,16-0-10,0027_eid_dnn_16-0-10_bottle_10_n04560804_11732.png
barlow_twins,1,28,NaN,clock,bottle,32-0-10,0028_eid_dnn_32-0-10_bottle_10_n04591713_13589.png
barlow_twins,1,29,NaN,oven,cat,2-0-10,0029_eid_dnn_2-0-10_cat_10_n02123045_4009.png
barlow_twins,1,30,NaN,bottle,chair,8-0-10,0030_eid_dnn_8-0-10_chair_10_n02791124_1704.png
barlow_twins,1,31,NaN,airplane,bicycle,128-0-10,0031_eid_dnn_128-0-10_bicycle_10_n03792782_28395.png
barlow_twins,1,32,NaN,bottle,truck,16-0-10,0032_eid_dnn_16-0-10_truck_10_n03417042_4288.png
barlow_twins,1,33,NaN,airplane,keyboard,1-0-10,0033_eid_dnn_1-0-10_keyboard_10_n04505470_3371.png
barlow_twins,1,34,NaN,bottle,cat,1-0-10,0034_eid_dnn_1-0-10_cat_10_n02124075_13436.png
barlow_twins,1,35,NaN,oven,dog,32-0-10,0035_eid_dnn_32-0-10_dog_10_n02097209_8270.png
barlow_twins,1,36,NaN,airplane,clock,128-0-10,0036_eid_dnn_128-0-10_clock_10_n04548280_7795.png
barlow_twins,1,37,NaN,oven,car,32-0-10,0037_eid_dnn_32-0-10_car_10_n03100240_21737.png
barlow_twins,1,38,NaN,airplane,clock,128-0-10,0038_eid_dnn_128-0-10_clock_10_n02708093_1862.png
barlow_twins,1,39,NaN,bottle,bicycle,64-0-10,0039_eid_dnn_64-0-10_bicycle_10_n03792782_9412.png
barlow_twins,1,40,NaN,bottle,bear,32-0-10,0040_eid_dnn_32-0-10_bear_10_n02134418_163.png
barlow_twins,1,41,NaN,elephant,keyboard,16-0-10,0041_eid_dnn_16-0-10_keyboard_10_n03085013_25675.png
barlow_twins,1,42,NaN,oven,truck,2-0-10,0042_eid_dnn_2-0-10_truck_10_n03417042_1716.png
barlow_twins,1,43,NaN,airplane,keyboard,128-0-10,0043_eid_dnn_128-0-10_keyboard_10_n03085013_18854.png
barlow_twins,1,44,NaN,oven,bottle,32-0-10,0044_eid_dnn_32-0-10_bottle_10_n04591713_4865.png
barlow_twins,1,45,NaN,airplane,bicycle,32-0-10,0045_eid_dnn_32-0-10_bicycle_10_n03792782_693.png
barlow_twins,1,46,NaN,keyboard,bottle,1-0-10,0046_eid_dnn_1-0-10_bottle_10_n04557648_264.png
barlow_twins,1,47,NaN,knife,knife,2-0-10,0047_eid_dnn_2-0-10_knife_10_n03041632_25512.png
barlow_twins,1,48,NaN,elephant,boat,16-0-10,0048_eid_dnn_16-0-10_boat_10_n03344393_2381.png
barlow_twins,1,49,NaN,truck,dog,128-0-10,0049_eid_dnn_128-0-10_dog_10_n02110627_17670.png
barlow_twins,1,50,NaN,oven,bear,64-0-10,0050_eid_dnn_64-0-10_bear_10_n02133161_15981.png
barlow_twins,1,51,NaN,bear,elephant,16-0-10,0051_eid_dnn_16-0-10_elephant_10_n02504458_3570.png
barlow_twins,1,52,NaN,oven,truck,4-0-10,0052_eid_dnn_4-0-10_truck_10_n03417042_6241.png
barlow_twins,1,53,NaN,keyboard,bird,8-0-10,0053_eid_dnn_8-0-10_bird_10_n02025239_17670.png
barlow_twins,1,54,NaN,knife,dog,16-0-10,0054_eid_dnn_16-0-10_dog_10_n02106030_19249.png
barlow_twins,1,55,NaN,oven,keyboard,32-0-10,0055_eid_dnn_32-0-10_keyboard_10_n04505470_2326.png
barlow_twins,1,56,NaN,airplane,dog,16-0-10,0056_eid_dnn_16-0-10_dog_10_n02107142_9379.png
barlow_twins,1,57,NaN,oven,cat,64-0-10,0057_eid_dnn_64-0-10_cat_10_n02123394_1828.png
barlow_twins,1,58,NaN,airplane,car,32-0-10,0058_eid_dnn_32-0-10_car_10_n03100240_4605.png
barlow_twins,1,59,NaN,keyboard,bicycle,4-0-10,0059_eid_dnn_4-0-10_bicycle_10_n03792782_6765.png
barlow_twins,1,60,NaN,car,boat,8-0-10,0060_eid_dnn_8-0-10_boat_10_n03344393_8455.png
barlow_twins,1,61,NaN,keyboard,oven,16-0-10,0061_eid_dnn_16-0-10_oven_10_n04111531_8603.png
barlow_twins,1,62,NaN,oven,bird,2-0-10,0062_eid_dnn_2-0-10_bird_10_n02051845_2574.png
barlow_twins,1,63,NaN,knife,boat,4-0-10,0063_eid_dnn_4-0-10_boat_10_n04612504_15875.png
barlow_twins,1,64,NaN,keyboard,bottle,4-0-10,0064_eid_dnn_4-0-10_bottle_10_n03983396_7337.png
barlow_twins,1,65,NaN,airplane,clock,8-0-10,0065_eid_dnn_8-0-10_clock_10_n02708093_6822.png
barlow_twins,1,66,NaN,keyboard,truck,2-0-10,0066_eid_dnn_2-0-10_truck_10_n04467665_15994.png
barlow_twins,1,67,NaN,keyboard,cat,128-0-10,0067_eid_dnn_128-0-10_cat_10_n02123597_6291.png
barlow_twins,1,68,NaN,elephant,bird,8-0-10,0068_eid_dnn_8-0-10_bird_10_n01817953_1734.png
barlow_twins,1,69,NaN,keyboard,elephant,32-0-10,0069_eid_dnn_32-0-10_elephant_10_n02504458_6880.png
barlow_twins,1,70,NaN,keyboard,cat,16-0-10,0070_eid_dnn_16-0-10_cat_10_n02123597_13197.png
barlow_twins,1,71,NaN,oven,bicycle,64-0-10,0071_eid_dnn_64-0-10_bicycle_10_n03792782_973.png
barlow_twins,1,72,NaN,keyboard,cat,2-0-10,0072_eid_dnn_2-0-10_cat_10_n02124075_8310.png
barlow_twins,1,73,NaN,oven,oven,32-0-10,0073_eid_dnn_32-0-10_oven_10_n04111531_5168.png
barlow_twins,1,74,NaN,truck,airplane,1-0-10,0074_eid_dnn_1-0-10_airplane_10_n02690373_4893.png
barlow_twins,1,75,NaN,knife,dog,1-0-10,0075_eid_dnn_1-0-10_dog_10_n02086240_3614.png
barlow_twins,1,76,NaN,keyboard,oven,16-0-10,0076_eid_dnn_16-0-10_oven_10_n04111531_2937.png
barlow_twins,1,77,NaN,elephant,clock,1-0-10,0077_eid_dnn_1-0-10_clock_10_n03196217_2022.png
barlow_twins,1,78,NaN,oven,bottle,64-0-10,0078_eid_dnn_64-0-10_bottle_10_n04591713_2732.png
barlow_twins,1,79,NaN,car,car,2-0-10,0079_eid_dnn_2-0-10_car_10_n03100240_8794.png
barlow_twins,1,80,NaN,keyboard,airplane,16-0-10,0080_eid_dnn_16-0-10_airplane_10_n02690373_3640.png
barlow_twins,1,81,NaN,airplane,bicycle,64-0-10,0081_eid_dnn_64-0-10_bicycle_10_n03792782_41097.png
barlow_twins,1,82,NaN,oven,dog,64-0-10,0082_eid_dnn_64-0-10_dog_10_n02090721_6770.png
barlow_twins,1,83,NaN,car,cat,16-0-10,0083_eid_dnn_16-0-10_cat_10_n02123597_28968.png
barlow_twins,1,84,NaN,bottle,elephant,1-0-10,0084_eid_dnn_1-0-10_elephant_10_n02504013_5894.png
barlow_twins,1,85,NaN,oven,oven,32-0-10,0085_eid_dnn_32-0-10_oven_10_n04111531_9314.png
barlow_twins,1,86,NaN,bottle,elephant,1-0-10,0086_eid_dnn_1-0-10_elephant_10_n02504458_12074.png
barlow_twins,1,87,NaN,keyboard,boat,4-0-10,0087_eid_dnn_4-0-10_boat_10_n03344393_3773.png
barlow_twins,1,88,NaN,airplane,truck,128-0-10,0088_eid_dnn_128-0-10_truck_10_n04467665_80153.png
barlow_twins,1,89,NaN,oven,chair,128-0-10,0089_eid_dnn_128-0-10_chair_10_n04099969_20604.png
barlow_twins,1,90,NaN,oven,keyboard,32-0-10,0090_eid_dnn_32-0-10_keyboard_10_n03085013_23625.png
barlow_twins,1,91,NaN,oven,truck,64-0-10,0091_eid_dnn_64-0-10_truck_10_n03796401_1458.png
barlow_twins,1,92,NaN,keyboard,car,4-0-10,0092_eid_dnn_4-0-10_car_10_n03100240_18711.png
barlow_twins,1,93,NaN,oven,truck,128-0-10,0093_eid_dnn_128-0-10_truck_10_n03796401_2988.png
barlow_twins,1,94,NaN,clock,truck,2-0-10,0094_eid_dnn_2-0-10_truck_10_n03417042_7096.png
barlow_twins,1,95,NaN,knife,dog,8-0-10,0095_eid_dnn_8-0-10_dog_10_n02105855_9345.png
barlow_twins,1,96,NaN,elephant,bird,32-0-10,0096_eid_dnn_32-0-10_bird_10_n01796340_8342.png
barlow_twins,1,97,NaN,clock,airplane,8-0-10,0097_eid_dnn_8-0-10_airplane_10_n02690373_7293.png
barlow_twins,1,98,NaN,oven,car,64-0-10,0098_eid_dnn_64-0-10_car_10_n04285008_9811.png
barlow_twins,1,99,NaN,bottle,knife,8-0-10,0099_eid_dnn_8-0-10_knife_10_n03041632_86783.png
barlow_twins,1,100,NaN,bottle,oven,16-0-10,0100_eid_dnn_16-0-10_oven_10_n04111531_9867.png
barlow_twins,1,101,NaN,airplane,truck,128-0-10,0101_eid_dnn_128-0-10_truck_10_n04467665_22573.png
barlow_twins,1,102,NaN,oven,car,128-0-10,0102_eid_dnn_128-0-10_car_10_n02814533_23512.png
barlow_twins,1,103,NaN,elephant,bicycle,16-0-10,0103_eid_dnn_16-0-10_bicycle_10_n03792782_4895.png
barlow_twins,1,104,NaN,truck,keyboard,2-0-10,0104_eid_dnn_2-0-10_keyboard_10_n03085013_23554.png
barlow_twins,1,105,NaN,oven,bear,1-0-10,0105_eid_dnn_1-0-10_bear_10_n02134084_8601.png
barlow_twins,1,106,NaN,keyboard,bicycle,8-0-10,0106_eid_dnn_8-0-10_bicycle_10_n03792782_126.png
barlow_twins,1,107,NaN,oven,chair,1-0-10,0107_eid_dnn_1-0-10_chair_10_n04099969_3583.png
barlow_twins,1,108,NaN,keyboard,bicycle,8-0-10,0108_eid_dnn_8-0-10_bicycle_10_n02835271_976.png
barlow_twins,1,109,NaN,airplane,oven,32-0-10,0109_eid_dnn_32-0-10_oven_10_n04111531_10313.png
barlow_twins,1,110,NaN,oven,oven,1-0-10,0110_eid_dnn_1-0-10_oven_10_n04111531_8984.png
barlow_twins,1,111,NaN,car,elephant,8-0-10,0111_eid_dnn_8-0-10_elephant_10_n02504013_3181.png
barlow_twins,1,112,NaN,oven,keyboard,64-0-10,0112_eid_dnn_64-0-10_keyboard_10_n03085013_21490.png
barlow_twins,1,113,NaN,keyboard,bird,4-0-10,0113_eid_dnn_4-0-10_bird_10_n01614925_2708.png
barlow_twins,1,114,NaN,bottle,bottle,16-0-10,0114_eid_dnn_16-0-10_bottle_10_n03983396_3109.png
barlow_twins,1,115,NaN,oven,bear,128-0-10,0115_eid_dnn_128-0-10_bear_10_n02134418_377.png
barlow_twins,1,116,NaN,keyboard,knife,16-0-10,0116_eid_dnn_16-0-10_knife_10_n03041632_7680.png
barlow_twins,1,117,NaN,bottle,truck,4-0-10,0117_eid_dnn_4-0-10_truck_10_n03417042_3807.png
barlow_twins,1,118,NaN,airplane,elephant,128-0-10,0118_eid_dnn_128-0-10_elephant_10_n02504013_6501.png
barlow_twins,1,119,NaN,oven,bicycle,32-0-10,0119_eid_dnn_32-0-10_bicycle_10_n03792782_5517.png
barlow_twins,1,120,NaN,airplane,bottle,128-0-10,0120_eid_dnn_128-0-10_bottle_10_n02823428_5791.png
barlow_twins,1,121,NaN,oven,car,128-0-10,0121_eid_dnn_128-0-10_car_10_n04285008_10144.png
barlow_twins,1,122,NaN,oven,cat,4-0-10,0122_eid_dnn_4-0-10_cat_10_n02123159_5764.png
barlow_twins,1,123,NaN,keyboard,dog,16-0-10,0123_eid_dnn_16-0-10_dog_10_n02085936_4491.png
barlow_twins,1,124,NaN,oven,bicycle,32-0-10,0124_eid_dnn_32-0-10_bicycle_10_n03792782_6159.png
barlow_twins,1,125,NaN,bottle,clock,4-0-10,0125_eid_dnn_4-0-10_clock_10_n04548280_2404.png
barlow_twins,1,126,NaN,oven,bottle,64-0-10,0126_eid_dnn_64-0-10_bottle_10_n04591713_360.png
barlow_twins,1,127,NaN,car,airplane,16-0-10,0127_eid_dnn_16-0-10_airplane_10_n02690373_1909.png
barlow_twins,1,128,NaN,knife,bear,2-0-10,0128_eid_dnn_2-0-10_bear_10_n02133161_9724.png
barlow_twins,1,129,NaN,keyboard,car,2-0-10,0129_eid_dnn_2-0-10_car_10_n04285008_5897.png
barlow_twins,1,130,NaN,keyboard,bicycle,1-0-10,0130_eid_dnn_1-0-10_bicycle_10_n02835271_9807.png
barlow_twins,1,131,NaN,keyboard,keyboard,1-0-10,0131_eid_dnn_1-0-10_keyboard_10_n03085013_23286.png
barlow_twins,1,132,NaN,oven,clock,2-0-10,0132_eid_dnn_2-0-10_clock_10_n02708093_772.png
barlow_twins,1,133,NaN,oven,clock,4-0-10,0133_eid_dnn_4-0-10_clock_10_n03196217_820.png
barlow_twins,1,134,NaN,keyboard,dog,32-0-10,0134_eid_dnn_32-0-10_dog_10_n02093754_6351.png
barlow_twins,1,135,NaN,bottle,truck,8-0-10,0135_eid_dnn_8-0-10_truck_10_n03417042_27093.png
barlow_twins,1,136,NaN,airplane,bicycle,4-0-10,0136_eid_dnn_4-0-10_bicycle_10_n03792782_30530.png
barlow_twins,1,137,NaN,oven,bottle,4-0-10,0137_eid_dnn_4-0-10_bottle_10_n03937543_5215.png
barlow_twins,1,138,NaN,car,boat,2-0-10,0138_eid_dnn_2-0-10_boat_10_n02951358_9933.png
barlow_twins,1,139,NaN,bottle,dog,4-0-10,0139_eid_dnn_4-0-10_dog_10_n02086910_8694.png
barlow_twins,1,140,NaN,knife,knife,8-0-10,0140_eid_dnn_8-0-10_knife_10_n03041632_3504.png
barlow_twins,1,141,NaN,airplane,knife,128-0-10,0141_eid_dnn_128-0-10_knife_10_n03041632_15754.png
barlow_twins,1,142,NaN,airplane,truck,8-0-10,0142_eid_dnn_8-0-10_truck_10_n04467665_45306.png
barlow_twins,1,143,NaN,knife,elephant,1-0-10,0143_eid_dnn_1-0-10_elephant_10_n02504013_5351.png
barlow_twins,1,144,NaN,elephant,bottle,2-0-10,0144_eid_dnn_2-0-10_bottle_10_n03937543_7763.png
barlow_twins,1,145,NaN,bottle,bird,32-0-10,0145_eid_dnn_32-0-10_bird_10_n01843383_91.png
barlow_twins,1,146,NaN,elephant,clock,4-0-10,0146_eid_dnn_4-0-10_clock_10_n04548280_28.png
barlow_twins,1,147,NaN,elephant,knife,16-0-10,0147_eid_dnn_16-0-10_knife_10_n03041632_102828.png
barlow_twins,1,148,NaN,oven,car,128-0-10,0148_eid_dnn_128-0-10_car_10_n03100240_7520.png
barlow_twins,1,149,NaN,elephant,knife,16-0-10,0149_eid_dnn_16-0-10_knife_10_n03041632_53874.png
barlow_twins,1,150,NaN,keyboard,boat,16-0-10,0150_eid_dnn_16-0-10_boat_10_n04273569_3896.png
barlow_twins,1,151,NaN,clock,airplane,2-0-10,0151_eid_dnn_2-0-10_airplane_10_n02690373_6002.png
barlow_twins,1,152,NaN,oven,chair,8-0-10,0152_eid_dnn_8-0-10_chair_10_n04099969_7191.png
barlow_twins,1,153,NaN,keyboard,dog,32-0-10,0153_eid_dnn_32-0-10_dog_10_n02101388_4808.png
barlow_twins,1,154,NaN,keyboard,keyboard,16-0-10,0154_eid_dnn_16-0-10_keyboard_10_n03085013_24538.png
barlow_twins,1,155,NaN,airplane,knife,128-0-10,0155_eid_dnn_128-0-10_knife_10_n03041632_85488.png
barlow_twins,1,156,NaN,clock,car,4-0-10,0156_eid_dnn_4-0-10_car_10_n04285008_7630.png
barlow_twins,1,157,NaN,bottle,airplane,8-0-10,0157_eid_dnn_8-0-10_airplane_10_n02690373_2941.png
barlow_twins,1,158,NaN,oven,bird,64-0-10,0158_eid_dnn_64-0-10_bird_10_n01514859_6021.png
barlow_twins,1,159,NaN,airplane,clock,64-0-10,0159_eid_dnn_64-0-10_clock_10_n04548280_3293.png
barlow_twins,1,160,NaN,car,oven,4-0-10,0160_eid_dnn_4-0-10_oven_10_n04111531_4998.png
barlow_twins,1,161,NaN,elephant,bird,128-0-10,0161_eid_dnn_128-0-10_bird_10_n02028035_32993.png
barlow_twins,1,162,NaN,oven,bird,2-0-10,0162_eid_dnn_2-0-10_bird_10_n01843383_7800.png
barlow_twins,1,163,NaN,oven,bear,64-0-10,0163_eid_dnn_64-0-10_bear_10_n02132136_15174.png
barlow_twins,1,164,NaN,keyboard,oven,4-0-10,0164_eid_dnn_4-0-10_oven_10_n04111531_7266.png
barlow_twins,1,165,NaN,airplane,cat,128-0-10,0165_eid_dnn_128-0-10_cat_10_n02124075_6464.png
barlow_twins,1,166,NaN,bottle,bicycle,16-0-10,0166_eid_dnn_16-0-10_bicycle_10_n02835271_4667.png
barlow_twins,1,167,NaN,oven,chair,32-0-10,0167_eid_dnn_32-0-10_chair_10_n04099969_2532.png
barlow_twins,1,168,NaN,keyboard,bottle,4-0-10,0168_eid_dnn_4-0-10_bottle_10_n04560804_15683.png
barlow_twins,1,169,NaN,car,chair,8-0-10,0169_eid_dnn_8-0-10_chair_10_n04099969_6825.png
barlow_twins,1,170,NaN,truck,oven,1-0-10,0170_eid_dnn_1-0-10_oven_10_n04111531_1612.png
barlow_twins,1,171,NaN,keyboard,clock,2-0-10,0171_eid_dnn_2-0-10_clock_10_n02708093_1701.png
barlow_twins,1,172,NaN,bottle,elephant,32-0-10,0172_eid_dnn_32-0-10_elephant_10_n02504013_782.png
barlow_twins,1,173,NaN,airplane,dog,128-0-10,0173_eid_dnn_128-0-10_dog_10_n02107908_8814.png
barlow_twins,1,174,NaN,knife,elephant,4-0-10,0174_eid_dnn_4-0-10_elephant_10_n02504458_5816.png
barlow_twins,1,175,NaN,keyboard,car,2-0-10,0175_eid_dnn_2-0-10_car_10_n03100240_18788.png
barlow_twins,1,176,NaN,keyboard,airplane,16-0-10,0176_eid_dnn_16-0-10_airplane_10_n02690373_7915.png
barlow_twins,1,177,NaN,elephant,chair,4-0-10,0177_eid_dnn_4-0-10_chair_10_n04429376_10544.png
barlow_twins,1,178,NaN,oven,knife,32-0-10,0178_eid_dnn_32-0-10_knife_10_n03041632_24883.png
barlow_twins,1,179,NaN,knife,bicycle,128-0-10,0179_eid_dnn_128-0-10_bicycle_10_n03792782_10367.png
barlow_twins,1,180,NaN,oven,oven,1-0-10,0180_eid_dnn_1-0-10_oven_10_n04111531_3121.png
barlow_twins,1,181,NaN,airplane,car,128-0-10,0181_eid_dnn_128-0-10_car_10_n02814533_10995.png
barlow_twins,1,182,NaN,airplane,dog,128-0-10,0182_eid_dnn_128-0-10_dog_10_n02112350_502.png
barlow_twins,1,183,NaN,oven,clock,128-0-10,0183_eid_dnn_128-0-10_clock_10_n04548280_5278.png
barlow_twins,1,184,NaN,keyboard,bird,4-0-10,0184_eid_dnn_4-0-10_bird_10_n02006656_713.png
barlow_twins,1,185,NaN,oven,bottle,128-0-10,0185_eid_dnn_128-0-10_bottle_10_n04557648_4106.png
barlow_twins,1,186,NaN,oven,clock,64-0-10,0186_eid_dnn_64-0-10_clock_10_n02708093_1430.png
barlow_twins,1,187,NaN,oven,oven,1-0-10,0187_eid_dnn_1-0-10_oven_10_n04111531_7664.png
barlow_twins,1,188,NaN,knife,car,1-0-10,0188_eid_dnn_1-0-10_car_10_n02814533_149.png
barlow_twins,1,189,NaN,oven,clock,64-0-10,0189_eid_dnn_64-0-10_clock_10_n04548280_8296.png
barlow_twins,1,190,NaN,airplane,bottle,64-0-10,0190_eid_dnn_64-0-10_bottle_10_n04591713_5815.png
barlow_twins,1,191,NaN,oven,knife,2-0-10,0191_eid_dnn_2-0-10_knife_10_n03041632_90125.png
barlow_twins,1,192,NaN,elephant,bird,64-0-10,0192_eid_dnn_64-0-10_bird_10_n01534433_16586.png
barlow_twins,1,193,NaN,elephant,cat,4-0-10,0193_eid_dnn_4-0-10_cat_10_n02123394_2559.png
barlow_twins,1,194,NaN,airplane,elephant,4-0-10,0194_eid_dnn_4-0-10_elephant_10_n02504458_5995.png
barlow_twins,1,195,NaN,keyboard,car,2-0-10,0195_eid_dnn_2-0-10_car_10_n02814533_211.png
barlow_twins,1,196,NaN,elephant,chair,1-0-10,0196_eid_dnn_1-0-10_chair_10_n04429376_13328.png
barlow_twins,1,197,NaN,truck,keyboard,16-0-10,0197_eid_dnn_16-0-10_keyboard_10_n03085013_24618.png
barlow_twins,1,198,NaN,keyboard,oven,4-0-10,0198_eid_dnn_4-0-10_oven_10_n04111531_2186.png
barlow_twins,1,199,NaN,airplane,oven,8-0-10,0199_eid_dnn_8-0-10_oven_10_n04111531_114.png
barlow_twins,1,200,NaN,keyboard,car,1-0-10,0200_eid_dnn_1-0-10_car_10_n03100240_1745.png
barlow_twins,1,201,NaN,elephant,cat,4-0-10,0201_eid_dnn_4-0-10_cat_10_n02123394_1259.png
barlow_twins,1,202,NaN,car,oven,4-0-10,0202_eid_dnn_4-0-10_oven_10_n04111531_5801.png
barlow_twins,1,203,NaN,keyboard,airplane,32-0-10,0203_eid_dnn_32-0-10_airplane_10_n02690373_2024.png
barlow_twins,1,204,NaN,keyboard,cat,8-0-10,0204_eid_dnn_8-0-10_cat_10_n02123045_12181.png
barlow_twins,1,205,NaN,airplane,airplane,64-0-10,0205_eid_dnn_64-0-10_airplane_10_n02690373_3313.png
barlow_twins,1,206,NaN,airplane,truck,64-0-10,0206_eid_dnn_64-0-10_truck_10_n04467665_80465.png
barlow_twins,1,207,NaN,oven,elephant,2-0-10,0207_eid_dnn_2-0-10_elephant_10_n02504013_8626.png
barlow_twins,1,208,NaN,airplane,car,16-0-10,0208_eid_dnn_16-0-10_car_10_n04285008_7904.png
barlow_twins,1,209,NaN,car,airplane,8-0-10,0209_eid_dnn_8-0-10_airplane_10_n02690373_6363.png
barlow_twins,1,210,NaN,oven,cat,4-0-10,0210_eid_dnn_4-0-10_cat_10_n02123045_7294.png
barlow_twins,1,211,NaN,airplane,airplane,128-0-10,0211_eid_dnn_128-0-10_airplane_10_n02690373_6988.png
barlow_twins,1,212,NaN,chair,cat,4-0-10,0212_eid_dnn_4-0-10_cat_10_n02125311_25749.png
barlow_twins,1,213,NaN,oven,bird,64-0-10,0213_eid_dnn_64-0-10_bird_10_n02018207_12980.png
barlow_twins,1,214,NaN,clock,cat,32-0-10,0214_eid_dnn_32-0-10_cat_10_n02123394_2814.png
barlow_twins,1,215,NaN,car,car,4-0-10,0215_eid_dnn_4-0-10_car_10_n04285008_662.png
barlow_twins,1,216,NaN,airplane,bicycle,2-0-10,0216_eid_dnn_2-0-10_bicycle_10_n03792782_11679.png
barlow_twins,1,217,NaN,keyboard,dog,16-0-10,0217_eid_dnn_16-0-10_dog_10_n02093428_17769.png
barlow_twins,1,218,NaN,bottle,dog,64-0-10,0218_eid_dnn_64-0-10_dog_10_n02106030_17418.png
barlow_twins,1,219,NaN,car,chair,64-0-10,0219_eid_dnn_64-0-10_chair_10_n02791124_7142.png
barlow_twins,1,220,NaN,airplane,bear,1-0-10,0220_eid_dnn_1-0-10_bear_10_n02134084_18083.png
barlow_twins,1,221,NaN,airplane,keyboard,2-0-10,0221_eid_dnn_2-0-10_keyboard_10_n03085013_7536.png
barlow_twins,1,222,NaN,oven,bird,1-0-10,0222_eid_dnn_1-0-10_bird_10_n01616318_2473.png
barlow_twins,1,223,NaN,airplane,elephant,1-0-10,0223_eid_dnn_1-0-10_elephant_10_n02504458_5951.png
barlow_twins,1,224,NaN,knife,airplane,4-0-10,0224_eid_dnn_4-0-10_airplane_10_n02690373_5164.png
barlow_twins,1,225,NaN,oven,elephant,4-0-10,0225_eid_dnn_4-0-10_elephant_10_n02504013_1865.png
barlow_twins,1,226,NaN,elephant,knife,1-0-10,0226_eid_dnn_1-0-10_knife_10_n03041632_56454.png
barlow_twins,1,227,NaN,oven,bird,64-0-10,0227_eid_dnn_64-0-10_bird_10_n01824575_5820.png
barlow_twins,1,228,NaN,knife,oven,4-0-10,0228_eid_dnn_4-0-10_oven_10_n04111531_4332.png
barlow_twins,1,229,NaN,keyboard,truck,2-0-10,0229_eid_dnn_2-0-10_truck_10_n04467665_41352.png
barlow_twins,1,230,NaN,elephant,bird,8-0-10,0230_eid_dnn_8-0-10_bird_10_n01514859_5668.png
barlow_twins,1,231,NaN,airplane,oven,32-0-10,0231_eid_dnn_32-0-10_oven_10_n04111531_4438.png
barlow_twins,1,232,NaN,cat,cat,1-0-10,0232_eid_dnn_1-0-10_cat_10_n02123394_6693.png
barlow_twins,1,233,NaN,keyboard,elephant,32-0-10,0233_eid_dnn_32-0-10_elephant_10_n02504458_6302.png
barlow_twins,1,234,NaN,oven,bottle,16-0-10,0234_eid_dnn_16-0-10_bottle_10_n03937543_2329.png
barlow_twins,1,235,NaN,airplane,elephant,16-0-10,0235_eid_dnn_16-0-10_elephant_10_n02504458_5155.png
barlow_twins,1,236,NaN,keyboard,bear,1-0-10,0236_eid_dnn_1-0-10_bear_10_n02134084_1694.png
barlow_twins,1,237,NaN,airplane,bear,128-0-10,0237_eid_dnn_128-0-10_bear_10_n02133161_1624.png
barlow_twins,1,238,NaN,oven,bear,64-0-10,0238_eid_dnn_64-0-10_bear_10_n02132136_11027.png
barlow_twins,1,239,NaN,bottle,elephant,64-0-10,0239_eid_dnn_64-0-10_elephant_10_n02504013_24621.png
barlow_twins,1,240,NaN,bottle,knife,16-0-10,0240_eid_dnn_16-0-10_knife_10_n03041632_27134.png
barlow_twins,1,241,NaN,oven,keyboard,32-0-10,0241_eid_dnn_32-0-10_keyboard_10_n03085013_24316.png
barlow_twins,1,242,NaN,elephant,cat,2-0-10,0242_eid_dnn_2-0-10_cat_10_n02123159_3026.png
barlow_twins,1,243,NaN,oven,bicycle,128-0-10,0243_eid_dnn_128-0-10_bicycle_10_n03792782_1475.png
barlow_twins,1,244,NaN,airplane,cat,16-0-10,0244_eid_dnn_16-0-10_cat_10_n02123045_20507.png
barlow_twins,1,245,NaN,oven,boat,64-0-10,0245_eid_dnn_64-0-10_boat_10_n02951358_23759.png
barlow_twins,1,246,NaN,elephant,bear,16-0-10,0246_eid_dnn_16-0-10_bear_10_n02132136_1858.png
barlow_twins,1,247,NaN,airplane,boat,128-0-10,0247_eid_dnn_128-0-10_boat_10_n02951358_6465.png
barlow_twins,1,248,NaN,airplane,airplane,128-0-10,0248_eid_dnn_128-0-10_airplane_10_n02690373_6223.png
barlow_twins,1,249,NaN,oven,boat,128-0-10,0249_eid_dnn_128-0-10_boat_10_n03344393_2412.png
barlow_twins,1,250,NaN,car,knife,8-0-10,0250_eid_dnn_8-0-10_knife_10_n03041632_6446.png
barlow_twins,1,251,NaN,oven,bottle,64-0-10,0251_eid_dnn_64-0-10_bottle_10_n04591713_7940.png
barlow_twins,1,252,NaN,knife,cat,4-0-10,0252_eid_dnn_4-0-10_cat_10_n02124075_13568.png
barlow_twins,1,253,NaN,airplane,boat,2-0-10,0253_eid_dnn_2-0-10_boat_10_n03662601_2171.png
barlow_twins,1,254,NaN,elephant,elephant,1-0-10,0254_eid_dnn_1-0-10_elephant_10_n02504458_415.png
barlow_twins,1,255,NaN,keyboard,car,16-0-10,0255_eid_dnn_16-0-10_car_10_n03100240_3386.png
barlow_twins,1,256,NaN,clock,bird,16-0-10,0256_eid_dnn_16-0-10_bird_10_n02056570_6633.png
barlow_twins,1,257,NaN,elephant,bottle,32-0-10,0257_eid_dnn_32-0-10_bottle_10_n02823428_4232.png
barlow_twins,1,258,NaN,airplane,boat,128-0-10,0258_eid_dnn_128-0-10_boat_10_n04273569_2396.png
barlow_twins,1,259,NaN,airplane,knife,1-0-10,0259_eid_dnn_1-0-10_knife_10_n03041632_38996.png
barlow_twins,1,260,NaN,car,oven,8-0-10,0260_eid_dnn_8-0-10_oven_10_n04111531_10420.png
barlow_twins,1,261,NaN,oven,dog,128-0-10,0261_eid_dnn_128-0-10_dog_10_n02094114_2394.png
barlow_twins,1,262,NaN,airplane,elephant,128-0-10,0262_eid_dnn_128-0-10_elephant_10_n02504013_4247.png
barlow_twins,1,263,NaN,elephant,chair,32-0-10,0263_eid_dnn_32-0-10_chair_10_n03376595_8137.png
barlow_twins,1,264,NaN,oven,airplane,128-0-10,0264_eid_dnn_128-0-10_airplane_10_n02690373_8524.png
barlow_twins,1,265,NaN,oven,car,64-0-10,0265_eid_dnn_64-0-10_car_10_n03100240_18410.png
barlow_twins,1,266,NaN,oven,clock,64-0-10,0266_eid_dnn_64-0-10_clock_10_n04548280_2588.png
barlow_twins,1,267,NaN,oven,keyboard,32-0-10,0267_eid_dnn_32-0-10_keyboard_10_n03085013_24030.png
barlow_twins,1,268,NaN,oven,clock,2-0-10,0268_eid_dnn_2-0-10_clock_10_n03196217_6375.png
barlow_twins,1,269,NaN,keyboard,airplane,32-0-10,0269_eid_dnn_32-0-10_airplane_10_n02690373_4150.png
barlow_twins,1,270,NaN,keyboard,dog,4-0-10,0270_eid_dnn_4-0-10_dog_10_n02086646_6567.png
barlow_twins,1,271,NaN,oven,clock,64-0-10,0271_eid_dnn_64-0-10_clock_10_n03196217_775.png
barlow_twins,1,272,NaN,clock,car,1-0-10,0272_eid_dnn_1-0-10_car_10_n02814533_57353.png
barlow_twins,1,273,NaN,bottle,bottle,16-0-10,0273_eid_dnn_16-0-10_bottle_10_n04560804_183.png
barlow_twins,1,274,NaN,bottle,car,2-0-10,0274_eid_dnn_2-0-10_car_10_n04285008_10631.png
barlow_twins,1,275,NaN,knife,bear,2-0-10,0275_eid_dnn_2-0-10_bear_10_n02132136_10057.png
barlow_twins,1,276,NaN,airplane,boat,128-0-10,0276_eid_dnn_128-0-10_boat_10_n04273569_4605.png
barlow_twins,1,277,NaN,oven,cat,64-0-10,0277_eid_dnn_64-0-10_cat_10_n02123597_12711.png
barlow_twins,1,278,NaN,airplane,bottle,1-0-10,0278_eid_dnn_1-0-10_bottle_10_n04560804_5610.png
barlow_twins,1,279,NaN,oven,clock,32-0-10,0279_eid_dnn_32-0-10_clock_10_n04548280_8412.png
barlow_twins,1,280,NaN,knife,cat,2-0-10,0280_eid_dnn_2-0-10_cat_10_n02123597_13834.png
barlow_twins,1,281,NaN,oven,dog,128-0-10,0281_eid_dnn_128-0-10_dog_10_n02091831_538.png
barlow_twins,1,282,NaN,elephant,bicycle,32-0-10,0282_eid_dnn_32-0-10_bicycle_10_n03792782_10437.png
barlow_twins,1,283,NaN,knife,bear,2-0-10,0283_eid_dnn_2-0-10_bear_10_n02132136_2372.png
barlow_twins,1,284,NaN,bicycle,bicycle,128-0-10,0284_eid_dnn_128-0-10_bicycle_10_n03792782_4540.png
barlow_twins,1,285,NaN,oven,elephant,2-0-10,0285_eid_dnn_2-0-10_elephant_10_n02504013_10152.png
barlow_twins,1,286,NaN,bottle,boat,64-0-10,0286_eid_dnn_64-0-10_boat_10_n02951358_7603.png
barlow_twins,1,287,NaN,knife,bear,2-0-10,0287_eid_dnn_2-0-10_bear_10_n02133161_9371.png
barlow_twins,1,288,NaN,bottle,truck,8-0-10,0288_eid_dnn_8-0-10_truck_10_n04467665_69892.png
barlow_twins,1,289,NaN,elephant,knife,1-0-10,0289_eid_dnn_1-0-10_knife_10_n03041632_19275.png
barlow_twins,1,290,NaN,airplane,keyboard,16-0-10,0290_eid_dnn_16-0-10_keyboard_10_n04505470_9446.png
barlow_twins,1,291,NaN,oven,elephant,1-0-10,0291_eid_dnn_1-0-10_elephant_10_n02504013_9141.png
barlow_twins,1,292,NaN,oven,bird,128-0-10,0292_eid_dnn_128-0-10_bird_10_n02056570_8553.png
barlow_twins,1,293,NaN,car,car,1-0-10,0293_eid_dnn_1-0-10_car_10_n03100240_9171.png
barlow_twins,1,294,NaN,truck,dog,8-0-10,0294_eid_dnn_8-0-10_dog_10_n02102177_1533.png
barlow_twins,1,295,NaN,oven,cat,64-0-10,0295_eid_dnn_64-0-10_cat_10_n02124075_12464.png
barlow_twins,1,296,NaN,keyboard,chair,4-0-10,0296_eid_dnn_4-0-10_chair_10_n04429376_33792.png
barlow_twins,1,297,NaN,airplane,bear,128-0-10,0297_eid_dnn_128-0-10_bear_10_n02133161_3258.png
barlow_twins,1,298,NaN,elephant,dog,4-0-10,0298_eid_dnn_4-0-10_dog_10_n02097130_1442.png
barlow_twins,1,299,NaN,oven,chair,4-0-10,0299_eid_dnn_4-0-10_chair_10_n02791124_8970.png
barlow_twins,1,300,NaN,keyboard,car,8-0-10,0300_eid_dnn_8-0-10_car_10_n04285008_8545.png
barlow_twins,1,301,NaN,keyboard,truck,1-0-10,0301_eid_dnn_1-0-10_truck_10_n03417042_2204.png
barlow_twins,1,302,NaN,truck,bear,2-0-10,0302_eid_dnn_2-0-10_bear_10_n02133161_15593.png
barlow_twins,1,303,NaN,keyboard,clock,2-0-10,0303_eid_dnn_2-0-10_clock_10_n04548280_5845.png
barlow_twins,1,304,NaN,keyboard,knife,4-0-10,0304_eid_dnn_4-0-10_knife_10_n03041632_4975.png
barlow_twins,1,305,NaN,bottle,clock,32-0-10,0305_eid_dnn_32-0-10_clock_10_n03196217_4849.png
barlow_twins,1,306,NaN,keyboard,bicycle,2-0-10,0306_eid_dnn_2-0-10_bicycle_10_n03792782_15752.png
barlow_twins,1,307,NaN,keyboard,bicycle,16-0-10,0307_eid_dnn_16-0-10_bicycle_10_n02835271_29741.png
barlow_twins,1,308,NaN,keyboard,chair,4-0-10,0308_eid_dnn_4-0-10_chair_10_n04099969_16619.png
barlow_twins,1,309,NaN,knife,keyboard,4-0-10,0309_eid_dnn_4-0-10_keyboard_10_n04505470_4552.png
barlow_twins,1,310,NaN,chair,boat,8-0-10,0310_eid_dnn_8-0-10_boat_10_n02951358_13144.png
barlow_twins,1,311,NaN,keyboard,bird,32-0-10,0311_eid_dnn_32-0-10_bird_10_n01797886_14611.png
barlow_twins,1,312,NaN,elephant,knife,1-0-10,0312_eid_dnn_1-0-10_knife_10_n03041632_3326.png
barlow_twins,1,313,NaN,elephant,elephant,8-0-10,0313_eid_dnn_8-0-10_elephant_10_n02504013_5829.png
barlow_twins,1,314,NaN,elephant,dog,16-0-10,0314_eid_dnn_16-0-10_dog_10_n02088094_2292.png
barlow_twins,1,315,NaN,car,oven,8-0-10,0315_eid_dnn_8-0-10_oven_10_n04111531_4944.png
barlow_twins,1,316,NaN,airplane,oven,32-0-10,0316_eid_dnn_32-0-10_oven_10_n04111531_669.png
barlow_twins,1,317,NaN,oven,car,64-0-10,0317_eid_dnn_64-0-10_car_10_n02814533_6716.png
barlow_twins,1,318,NaN,keyboard,bear,32-0-10,0318_eid_dnn_32-0-10_bear_10_n02132136_26438.png
barlow_twins,1,319,NaN,elephant,bottle,4-0-10,0319_eid_dnn_4-0-10_bottle_10_n03983396_3027.png
barlow_twins,1,320,NaN,knife,elephant,2-0-10,0320_eid_dnn_2-0-10_elephant_10_n02504013_9299.png
barlow_twins,1,321,NaN,oven,knife,2-0-10,0321_eid_dnn_2-0-10_knife_10_n03041632_13846.png
barlow_twins,1,322,NaN,airplane,airplane,64-0-10,0322_eid_dnn_64-0-10_airplane_10_n02690373_16250.png
barlow_twins,1,323,NaN,oven,boat,64-0-10,0323_eid_dnn_64-0-10_boat_10_n03662601_13696.png
barlow_twins,1,324,NaN,knife,cat,1-0-10,0324_eid_dnn_1-0-10_cat_10_n02123597_5692.png
barlow_twins,1,325,NaN,keyboard,clock,8-0-10,0325_eid_dnn_8-0-10_clock_10_n02708093_3171.png
barlow_twins,1,326,NaN,airplane,keyboard,128-0-10,0326_eid_dnn_128-0-10_keyboard_10_n04505470_4902.png
barlow_twins,1,327,NaN,knife,dog,2-0-10,0327_eid_dnn_2-0-10_dog_10_n02113624_1170.png
barlow_twins,1,328,NaN,elephant,clock,2-0-10,0328_eid_dnn_2-0-10_clock_10_n03196217_1272.png
barlow_twins,1,329,NaN,airplane,cat,128-0-10,0329_eid_dnn_128-0-10_cat_10_n02123394_8946.png
barlow_twins,1,330,NaN,keyboard,car,8-0-10,0330_eid_dnn_8-0-10_car_10_n03100240_7134.png
barlow_twins,1,331,NaN,keyboard,bicycle,4-0-10,0331_eid_dnn_4-0-10_bicycle_10_n03792782_16034.png
barlow_twins,1,332,NaN,bear,dog,8-0-10,0332_eid_dnn_8-0-10_dog_10_n02104029_5465.png
barlow_twins,1,333,NaN,knife,keyboard,4-0-10,0333_eid_dnn_4-0-10_keyboard_10_n04505470_5011.png
barlow_twins,1,334,NaN,keyboard,bird,8-0-10,0334_eid_dnn_8-0-10_bird_10_n02009912_27132.png
barlow_twins,1,335,NaN,oven,knife,64-0-10,0335_eid_dnn_64-0-10_knife_10_n03041632_3171.png
barlow_twins,1,336,NaN,oven,bear,32-0-10,0336_eid_dnn_32-0-10_bear_10_n02134084_21170.png
barlow_twins,1,337,NaN,bottle,dog,4-0-10,0337_eid_dnn_4-0-10_dog_10_n02086079_29044.png
barlow_twins,1,338,NaN,oven,cat,4-0-10,0338_eid_dnn_4-0-10_cat_10_n02124075_8465.png
barlow_twins,1,339,NaN,airplane,bird,128-0-10,0339_eid_dnn_128-0-10_bird_10_n01855032_982.png
barlow_twins,1,340,NaN,oven,truck,32-0-10,0340_eid_dnn_32-0-10_truck_10_n03417042_6373.png
barlow_twins,1,341,NaN,bottle,airplane,16-0-10,0341_eid_dnn_16-0-10_airplane_10_n02690373_9959.png
barlow_twins,1,342,NaN,keyboard,clock,32-0-10,0342_eid_dnn_32-0-10_clock_10_n04548280_2260.png
barlow_twins,1,343,NaN,elephant,bottle,16-0-10,0343_eid_dnn_16-0-10_bottle_10_n03983396_5281.png
barlow_twins,1,344,NaN,elephant,cat,4-0-10,0344_eid_dnn_4-0-10_cat_10_n02123159_1113.png
barlow_twins,1,345,NaN,oven,keyboard,64-0-10,0345_eid_dnn_64-0-10_keyboard_10_n03085013_20460.png
barlow_twins,1,346,NaN,keyboard,clock,8-0-10,0346_eid_dnn_8-0-10_clock_10_n03196217_884.png
barlow_twins,1,347,NaN,bottle,clock,8-0-10,0347_eid_dnn_8-0-10_clock_10_n03196217_6257.png
barlow_twins,1,348,NaN,oven,dog,32-0-10,0348_eid_dnn_32-0-10_dog_10_n02113624_2109.png
barlow_twins,1,349,NaN,knife,keyboard,1-0-10,0349_eid_dnn_1-0-10_keyboard_10_n03085013_20416.png
barlow_twins,1,350,NaN,oven,bird,2-0-10,0350_eid_dnn_2-0-10_bird_10_n01820546_4609.png
barlow_twins,1,351,NaN,bottle,cat,64-0-10,0351_eid_dnn_64-0-10_cat_10_n02125311_47792.png
barlow_twins,1,352,NaN,keyboard,boat,16-0-10,0352_eid_dnn_16-0-10_boat_10_n04612504_1491.png
barlow_twins,1,353,NaN,keyboard,truck,16-0-10,0353_eid_dnn_16-0-10_truck_10_n03417042_910.png
barlow_twins,1,354,NaN,oven,airplane,64-0-10,0354_eid_dnn_64-0-10_airplane_10_n02690373_2038.png
barlow_twins,1,355,NaN,cat,cat,2-0-10,0355_eid_dnn_2-0-10_cat_10_n02123394_8164.png
barlow_twins,1,356,NaN,airplane,oven,2-0-10,0356_eid_dnn_2-0-10_oven_10_n04111531_22097.png
barlow_twins,1,357,NaN,airplane,bear,128-0-10,0357_eid_dnn_128-0-10_bear_10_n02134418_278.png
barlow_twins,1,358,NaN,oven,bird,4-0-10,0358_eid_dnn_4-0-10_bird_10_n01592084_9109.png
barlow_twins,1,359,NaN,oven,clock,32-0-10,0359_eid_dnn_32-0-10_clock_10_n03196217_3695.png
barlow_twins,1,360,NaN,airplane,elephant,128-0-10,0360_eid_dnn_128-0-10_elephant_10_n02504458_8939.png
barlow_twins,1,361,NaN,oven,elephant,2-0-10,0361_eid_dnn_2-0-10_elephant_10_n02504013_7926.png
barlow_twins,1,362,NaN,elephant,bear,4-0-10,0362_eid_dnn_4-0-10_bear_10_n02133161_11816.png
barlow_twins,1,363,NaN,oven,bird,2-0-10,0363_eid_dnn_2-0-10_bird_10_n02056570_18300.png
barlow_twins,1,364,NaN,knife,chair,2-0-10,0364_eid_dnn_2-0-10_chair_10_n02791124_7063.png
barlow_twins,1,365,NaN,bottle,chair,8-0-10,0365_eid_dnn_8-0-10_chair_10_n03376595_8289.png
barlow_twins,1,366,NaN,keyboard,airplane,4-0-10,0366_eid_dnn_4-0-10_airplane_10_n02690373_4434.png
barlow_twins,1,367,NaN,knife,truck,1-0-10,0367_eid_dnn_1-0-10_truck_10_n03417042_8953.png
barlow_twins,1,368,NaN,airplane,bear,64-0-10,0368_eid_dnn_64-0-10_bear_10_n02132136_699.png
barlow_twins,1,369,NaN,keyboard,knife,8-0-10,0369_eid_dnn_8-0-10_knife_10_n03041632_20517.png
barlow_twins,1,370,NaN,truck,bottle,32-0-10,0370_eid_dnn_32-0-10_bottle_10_n03983396_1910.png
barlow_twins,1,371,NaN,oven,oven,8-0-10,0371_eid_dnn_8-0-10_oven_10_n04111531_16198.png
barlow_twins,1,372,NaN,oven,elephant,64-0-10,0372_eid_dnn_64-0-10_elephant_10_n02504013_13427.png
barlow_twins,1,373,NaN,bottle,airplane,16-0-10,0373_eid_dnn_16-0-10_airplane_10_n02690373_1075.png
barlow_twins,1,374,NaN,oven,car,64-0-10,0374_eid_dnn_64-0-10_car_10_n03100240_5527.png
barlow_twins,1,375,NaN,knife,bear,1-0-10,0375_eid_dnn_1-0-10_bear_10_n02132136_4632.png
barlow_twins,1,376,NaN,car,boat,1-0-10,0376_eid_dnn_1-0-10_boat_10_n04273569_6158.png
barlow_twins,1,377,NaN,oven,knife,32-0-10,0377_eid_dnn_32-0-10_knife_10_n03041632_18141.png
barlow_twins,1,378,NaN,car,bear,16-0-10,0378_eid_dnn_16-0-10_bear_10_n02132136_6378.png
barlow_twins,1,379,NaN,knife,elephant,2-0-10,0379_eid_dnn_2-0-10_elephant_10_n02504458_5095.png
barlow_twins,1,380,NaN,chair,elephant,4-0-10,0380_eid_dnn_4-0-10_elephant_10_n02504013_10582.png
barlow_twins,1,381,NaN,elephant,chair,16-0-10,0381_eid_dnn_16-0-10_chair_10_n04099969_28139.png
barlow_twins,1,382,NaN,knife,keyboard,2-0-10,0382_eid_dnn_2-0-10_keyboard_10_n04505470_279.png
barlow_twins,1,383,NaN,car,car,8-0-10,0383_eid_dnn_8-0-10_car_10_n02814533_79696.png
barlow_twins,1,384,NaN,oven,cat,64-0-10,0384_eid_dnn_64-0-10_cat_10_n02124075_7984.png
barlow_twins,1,385,NaN,car,car,4-0-10,0385_eid_dnn_4-0-10_car_10_n02814533_27327.png
barlow_twins,1,386,NaN,elephant,bear,4-0-10,0386_eid_dnn_4-0-10_bear_10_n02134084_967.png
barlow_twins,1,387,NaN,oven,bear,64-0-10,0387_eid_dnn_64-0-10_bear_10_n02132136_949.png
barlow_twins,1,388,NaN,car,bicycle,16-0-10,0388_eid_dnn_16-0-10_bicycle_10_n03792782_2905.png
barlow_twins,1,389,NaN,keyboard,bicycle,8-0-10,0389_eid_dnn_8-0-10_bicycle_10_n03792782_34550.png
barlow_twins,1,390,NaN,chair,bear,16-0-10,0390_eid_dnn_16-0-10_bear_10_n02132136_9055.png
barlow_twins,1,391,NaN,oven,bear,64-0-10,0391_eid_dnn_64-0-10_bear_10_n02134084_7904.png
barlow_twins,1,392,NaN,elephant,clock,4-0-10,0392_eid_dnn_4-0-10_clock_10_n04548280_4526.png
barlow_twins,1,393,NaN,knife,bottle,1-0-10,0393_eid_dnn_1-0-10_bottle_10_n02823428_685.png
barlow_twins,1,394,NaN,keyboard,keyboard,64-0-10,0394_eid_dnn_64-0-10_keyboard_10_n04505470_3935.png
barlow_twins,1,395,NaN,oven,dog,64-0-10,0395_eid_dnn_64-0-10_dog_10_n02096051_3825.png
barlow_twins,1,396,NaN,car,dog,2-0-10,0396_eid_dnn_2-0-10_dog_10_n02089078_10601.png
barlow_twins,1,397,NaN,oven,clock,2-0-10,0397_eid_dnn_2-0-10_clock_10_n02708093_5236.png
barlow_twins,1,398,NaN,elephant,cat,2-0-10,0398_eid_dnn_2-0-10_cat_10_n02123159_2682.png
barlow_twins,1,399,NaN,oven,oven,1-0-10,0399_eid_dnn_1-0-10_oven_10_n04111531_10216.png
barlow_twins,1,400,NaN,knife,boat,2-0-10,0400_eid_dnn_2-0-10_boat_10_n02951358_7137.png
barlow_twins,1,401,NaN,oven,bird,64-0-10,0401_eid_dnn_64-0-10_bird_10_n02007558_6127.png
barlow_twins,1,402,NaN,bottle,dog,16-0-10,0402_eid_dnn_16-0-10_dog_10_n02096051_4804.png
barlow_twins,1,403,NaN,car,bottle,8-0-10,0403_eid_dnn_8-0-10_bottle_10_n03983396_13764.png
barlow_twins,1,404,NaN,airplane,knife,32-0-10,0404_eid_dnn_32-0-10_knife_10_n03041632_105081.png
barlow_twins,1,405,NaN,keyboard,boat,8-0-10,0405_eid_dnn_8-0-10_boat_10_n03344393_3535.png
barlow_twins,1,406,NaN,oven,keyboard,64-0-10,0406_eid_dnn_64-0-10_keyboard_10_n03085013_22929.png
barlow_twins,1,407,NaN,oven,bottle,1-0-10,0407_eid_dnn_1-0-10_bottle_10_n04579145_5979.png
barlow_twins,1,408,NaN,elephant,knife,2-0-10,0408_eid_dnn_2-0-10_knife_10_n03041632_31301.png
barlow_twins,1,409,NaN,airplane,car,128-0-10,0409_eid_dnn_128-0-10_car_10_n04285008_14653.png
barlow_twins,1,410,NaN,car,clock,16-0-10,0410_eid_dnn_16-0-10_clock_10_n03196217_1601.png
barlow_twins,1,411,NaN,bottle,bicycle,8-0-10,0411_eid_dnn_8-0-10_bicycle_10_n02835271_25268.png
barlow_twins,1,412,NaN,knife,bird,16-0-10,0412_eid_dnn_16-0-10_bird_10_n02037110_875.png
barlow_twins,1,413,NaN,airplane,airplane,128-0-10,0413_eid_dnn_128-0-10_airplane_10_n02690373_6807.png
barlow_twins,1,414,NaN,keyboard,clock,16-0-10,0414_eid_dnn_16-0-10_clock_10_n04548280_10066.png
barlow_twins,1,415,NaN,oven,boat,64-0-10,0415_eid_dnn_64-0-10_boat_10_n02951358_15252.png
barlow_twins,1,416,NaN,oven,car,64-0-10,0416_eid_dnn_64-0-10_car_10_n02814533_4803.png
barlow_twins,1,417,NaN,clock,car,16-0-10,0417_eid_dnn_16-0-10_car_10_n03100240_24544.png
barlow_twins,1,418,NaN,bicycle,bear,128-0-10,0418_eid_dnn_128-0-10_bear_10_n02132136_4219.png
barlow_twins,1,419,NaN,airplane,bicycle,32-0-10,0419_eid_dnn_32-0-10_bicycle_10_n02835271_507.png
barlow_twins,1,420,NaN,oven,boat,1-0-10,0420_eid_dnn_1-0-10_boat_10_n04273569_13290.png
barlow_twins,1,421,NaN,car,bicycle,2-0-10,0421_eid_dnn_2-0-10_bicycle_10_n03792782_42626.png
barlow_twins,1,422,NaN,keyboard,dog,8-0-10,0422_eid_dnn_8-0-10_dog_10_n02106382_3856.png
barlow_twins,1,423,NaN,elephant,clock,1-0-10,0423_eid_dnn_1-0-10_clock_10_n02708093_274.png
barlow_twins,1,424,NaN,airplane,bottle,32-0-10,0424_eid_dnn_32-0-10_bottle_10_n04591713_5921.png
barlow_twins,1,425,NaN,knife,elephant,1-0-10,0425_eid_dnn_1-0-10_elephant_10_n02504458_3851.png
barlow_twins,1,426,NaN,car,dog,32-0-10,0426_eid_dnn_32-0-10_dog_10_n02105855_995.png
barlow_twins,1,427,NaN,car,airplane,2-0-10,0427_eid_dnn_2-0-10_airplane_10_n02690373_1979.png
barlow_twins,1,428,NaN,knife,airplane,1-0-10,0428_eid_dnn_1-0-10_airplane_10_n02690373_6455.png
barlow_twins,1,429,NaN,airplane,oven,1-0-10,0429_eid_dnn_1-0-10_oven_10_n04111531_18979.png
barlow_twins,1,430,NaN,bottle,oven,32-0-10,0430_eid_dnn_32-0-10_oven_10_n04111531_16795.png
barlow_twins,1,431,NaN,airplane,truck,4-0-10,0431_eid_dnn_4-0-10_truck_10_n04467665_41076.png
barlow_twins,1,432,NaN,keyboard,bird,16-0-10,0432_eid_dnn_16-0-10_bird_10_n01534433_31697.png
barlow_twins,1,433,NaN,airplane,keyboard,128-0-10,0433_eid_dnn_128-0-10_keyboard_10_n04505470_4289.png
barlow_twins,1,434,NaN,elephant,keyboard,4-0-10,0434_eid_dnn_4-0-10_keyboard_10_n03085013_20727.png
barlow_twins,1,435,NaN,bottle,boat,8-0-10,0435_eid_dnn_8-0-10_boat_10_n04273569_7315.png
barlow_twins,1,436,NaN,oven,car,1-0-10,0436_eid_dnn_1-0-10_car_10_n03100240_16646.png
barlow_twins,1,437,NaN,car,car,16-0-10,0437_eid_dnn_16-0-10_car_10_n03100240_5281.png
barlow_twins,1,438,NaN,oven,airplane,128-0-10,0438_eid_dnn_128-0-10_airplane_10_n02690373_1670.png
barlow_twins,1,439,NaN,oven,airplane,128-0-10,0439_eid_dnn_128-0-10_airplane_10_n02690373_9293.png
barlow_twins,1,440,NaN,airplane,truck,128-0-10,0440_eid_dnn_128-0-10_truck_10_n03796401_15846.png
barlow_twins,1,441,NaN,car,truck,32-0-10,0441_eid_dnn_32-0-10_truck_10_n03796401_6971.png
barlow_twins,1,442,NaN,oven,oven,128-0-10,0442_eid_dnn_128-0-10_oven_10_n04111531_10724.png
barlow_twins,1,443,NaN,clock,keyboard,8-0-10,0443_eid_dnn_8-0-10_keyboard_10_n03085013_22187.png
barlow_twins,1,444,NaN,car,oven,8-0-10,0444_eid_dnn_8-0-10_oven_10_n04111531_4671.png
barlow_twins,1,445,NaN,bottle,airplane,4-0-10,0445_eid_dnn_4-0-10_airplane_10_n02690373_5142.png
barlow_twins,1,446,NaN,keyboard,elephant,4-0-10,0446_eid_dnn_4-0-10_elephant_10_n02504013_8562.png
barlow_twins,1,447,NaN,keyboard,truck,1-0-10,0447_eid_dnn_1-0-10_truck_10_n03417042_9668.png
barlow_twins,1,448,NaN,bear,bottle,8-0-10,0448_eid_dnn_8-0-10_bottle_10_n03983396_10330.png
barlow_twins,1,449,NaN,airplane,elephant,128-0-10,0449_eid_dnn_128-0-10_elephant_10_n02504458_4395.png
barlow_twins,1,450,NaN,oven,boat,64-0-10,0450_eid_dnn_64-0-10_boat_10_n03344393_4562.png
barlow_twins,1,451,NaN,oven,oven,2-0-10,0451_eid_dnn_2-0-10_oven_10_n04111531_10011.png
barlow_twins,1,452,NaN,oven,oven,64-0-10,0452_eid_dnn_64-0-10_oven_10_n04111531_13797.png
barlow_twins,1,453,NaN,car,boat,2-0-10,0453_eid_dnn_2-0-10_boat_10_n03662601_840.png
barlow_twins,1,454,NaN,keyboard,truck,16-0-10,0454_eid_dnn_16-0-10_truck_10_n03417042_17037.png
barlow_twins,1,455,NaN,oven,cat,64-0-10,0455_eid_dnn_64-0-10_cat_10_n02125311_2576.png
barlow_twins,1,456,NaN,elephant,keyboard,32-0-10,0456_eid_dnn_32-0-10_keyboard_10_n03085013_3264.png
barlow_twins,1,457,NaN,oven,dog,64-0-10,0457_eid_dnn_64-0-10_dog_10_n02097130_3519.png
barlow_twins,1,458,NaN,keyboard,airplane,16-0-10,0458_eid_dnn_16-0-10_airplane_10_n02690373_4486.png
barlow_twins,1,459,NaN,oven,bottle,16-0-10,0459_eid_dnn_16-0-10_bottle_10_n03983396_19635.png
barlow_twins,1,460,NaN,clock,airplane,16-0-10,0460_eid_dnn_16-0-10_airplane_10_n02690373_1426.png
barlow_twins,1,461,NaN,keyboard,oven,4-0-10,0461_eid_dnn_4-0-10_oven_10_n04111531_5279.png
barlow_twins,1,462,NaN,oven,bottle,64-0-10,0462_eid_dnn_64-0-10_bottle_10_n03983396_4024.png
barlow_twins,1,463,NaN,bottle,bear,8-0-10,0463_eid_dnn_8-0-10_bear_10_n02133161_12751.png
barlow_twins,1,464,NaN,airplane,car,8-0-10,0464_eid_dnn_8-0-10_car_10_n02814533_12271.png
barlow_twins,1,465,NaN,elephant,bottle,16-0-10,0465_eid_dnn_16-0-10_bottle_10_n04560804_5068.png
barlow_twins,1,466,NaN,oven,bottle,128-0-10,0466_eid_dnn_128-0-10_bottle_10_n04579145_1168.png
barlow_twins,1,467,NaN,oven,knife,64-0-10,0467_eid_dnn_64-0-10_knife_10_n03041632_2973.png
barlow_twins,1,468,NaN,keyboard,airplane,16-0-10,0468_eid_dnn_16-0-10_airplane_10_n02690373_19329.png
barlow_twins,1,469,NaN,oven,bottle,32-0-10,0469_eid_dnn_32-0-10_bottle_10_n04560804_1356.png
barlow_twins,1,470,NaN,keyboard,bear,8-0-10,0470_eid_dnn_8-0-10_bear_10_n02134084_3960.png
barlow_twins,1,471,NaN,knife,boat,4-0-10,0471_eid_dnn_4-0-10_boat_10_n04612504_27504.png
barlow_twins,1,472,NaN,knife,dog,4-0-10,0472_eid_dnn_4-0-10_dog_10_n02099601_9973.png
barlow_twins,1,473,NaN,oven,truck,64-0-10,0473_eid_dnn_64-0-10_truck_10_n03417042_26843.png
barlow_twins,1,474,NaN,oven,knife,64-0-10,0474_eid_dnn_64-0-10_knife_10_n03041632_55711.png
barlow_twins,1,475,NaN,car,elephant,8-0-10,0475_eid_dnn_8-0-10_elephant_10_n02504013_1986.png
barlow_twins,1,476,NaN,airplane,keyboard,4-0-10,0476_eid_dnn_4-0-10_keyboard_10_n03085013_9475.png
barlow_twins,1,477,NaN,bottle,elephant,32-0-10,0477_eid_dnn_32-0-10_elephant_10_n02504458_3381.png
barlow_twins,1,478,NaN,keyboard,airplane,8-0-10,0478_eid_dnn_8-0-10_airplane_10_n02690373_1161.png
barlow_twins,1,479,NaN,oven,cat,64-0-10,0479_eid_dnn_64-0-10_cat_10_n02124075_7474.png
barlow_twins,1,480,NaN,bottle,cat,4-0-10,0480_eid_dnn_4-0-10_cat_10_n02125311_9074.png
barlow_twins,1,481,NaN,airplane,airplane,128-0-10,0481_eid_dnn_128-0-10_airplane_10_n02690373_2867.png
barlow_twins,1,482,NaN,elephant,elephant,2-0-10,0482_eid_dnn_2-0-10_elephant_10_n02504013_1692.png
barlow_twins,1,483,NaN,elephant,bird,8-0-10,0483_eid_dnn_8-0-10_bird_10_n02009912_11813.png
barlow_twins,1,484,NaN,keyboard,bottle,16-0-10,0484_eid_dnn_16-0-10_bottle_10_n04557648_10302.png
barlow_twins,1,485,NaN,truck,keyboard,4-0-10,0485_eid_dnn_4-0-10_keyboard_10_n03085013_20302.png
barlow_twins,1,486,NaN,airplane,elephant,128-0-10,0486_eid_dnn_128-0-10_elephant_10_n02504458_5827.png
barlow_twins,1,487,NaN,elephant,knife,1-0-10,0487_eid_dnn_1-0-10_knife_10_n03041632_11327.png
barlow_twins,1,488,NaN,oven,bird,4-0-10,0488_eid_dnn_4-0-10_bird_10_n01795545_17770.png
barlow_twins,1,489,NaN,keyboard,bicycle,4-0-10,0489_eid_dnn_4-0-10_bicycle_10_n02835271_10932.png
barlow_twins,1,490,NaN,bear,cat,2-0-10,0490_eid_dnn_2-0-10_cat_10_n02123597_14233.png
barlow_twins,1,491,NaN,keyboard,bird,1-0-10,0491_eid_dnn_1-0-10_bird_10_n01614925_7662.png
barlow_twins,1,492,NaN,bottle,truck,16-0-10,0492_eid_dnn_16-0-10_truck_10_n03417042_5875.png
barlow_twins,1,493,NaN,oven,bear,1-0-10,0493_eid_dnn_1-0-10_bear_10_n02134418_304.png
barlow_twins,1,494,NaN,elephant,bird,1-0-10,0494_eid_dnn_1-0-10_bird_10_n01622779_5148.png
barlow_twins,1,495,NaN,knife,knife,1-0-10,0495_eid_dnn_1-0-10_knife_10_n03041632_44230.png
barlow_twins,1,496,NaN,elephant,boat,32-0-10,0496_eid_dnn_32-0-10_boat_10_n03662601_8650.png
barlow_twins,1,497,NaN,airplane,oven,16-0-10,0497_eid_dnn_16-0-10_oven_10_n04111531_4346.png
barlow_twins,1,498,NaN,oven,clock,2-0-10,0498_eid_dnn_2-0-10_clock_10_n03196217_2201.png
barlow_twins,1,499,NaN,keyboard,bicycle,64-0-10,0499_eid_dnn_64-0-10_bicycle_10_n02835271_8757.png
barlow_twins,1,500,NaN,airplane,keyboard,8-0-10,0500_eid_dnn_8-0-10_keyboard_10_n03085013_23563.png
barlow_twins,1,501,NaN,oven,boat,64-0-10,0501_eid_dnn_64-0-10_boat_10_n04273569_15879.png
barlow_twins,1,502,NaN,oven,truck,64-0-10,0502_eid_dnn_64-0-10_truck_10_n04467665_30588.png
barlow_twins,1,503,NaN,elephant,truck,16-0-10,0503_eid_dnn_16-0-10_truck_10_n03417042_1875.png
barlow_twins,1,504,NaN,oven,cat,128-0-10,0504_eid_dnn_128-0-10_cat_10_n02123394_6014.png
barlow_twins,1,505,NaN,clock,boat,1-0-10,0505_eid_dnn_1-0-10_boat_10_n04273569_10847.png
barlow_twins,1,506,NaN,oven,elephant,64-0-10,0506_eid_dnn_64-0-10_elephant_10_n02504013_5495.png
barlow_twins,1,507,NaN,airplane,bottle,128-0-10,0507_eid_dnn_128-0-10_bottle_10_n04560804_16276.png
barlow_twins,1,508,NaN,bottle,car,1-0-10,0508_eid_dnn_1-0-10_car_10_n04285008_1243.png
barlow_twins,1,509,NaN,airplane,keyboard,32-0-10,0509_eid_dnn_32-0-10_keyboard_10_n03085013_22027.png
barlow_twins,1,510,NaN,oven,cat,32-0-10,0510_eid_dnn_32-0-10_cat_10_n02123045_12766.png
barlow_twins,1,511,NaN,oven,chair,64-0-10,0511_eid_dnn_64-0-10_chair_10_n04429376_29954.png
barlow_twins,1,512,NaN,elephant,elephant,32-0-10,0512_eid_dnn_32-0-10_elephant_10_n02504013_5678.png
barlow_twins,1,513,NaN,keyboard,chair,4-0-10,0513_eid_dnn_4-0-10_chair_10_n03376595_6333.png
barlow_twins,1,514,NaN,airplane,keyboard,2-0-10,0514_eid_dnn_2-0-10_keyboard_10_n03085013_22605.png
barlow_twins,1,515,NaN,keyboard,car,32-0-10,0515_eid_dnn_32-0-10_car_10_n04285008_16557.png
barlow_twins,1,516,NaN,oven,bottle,64-0-10,0516_eid_dnn_64-0-10_bottle_10_n02823428_1034.png
barlow_twins,1,517,NaN,keyboard,elephant,16-0-10,0517_eid_dnn_16-0-10_elephant_10_n02504013_7777.png
barlow_twins,1,518,NaN,oven,knife,4-0-10,0518_eid_dnn_4-0-10_knife_10_n03041632_14293.png
barlow_twins,1,519,NaN,keyboard,knife,8-0-10,0519_eid_dnn_8-0-10_knife_10_n03041632_50423.png
barlow_twins,1,520,NaN,truck,chair,2-0-10,0520_eid_dnn_2-0-10_chair_10_n03376595_3043.png
barlow_twins,1,521,NaN,car,cat,8-0-10,0521_eid_dnn_8-0-10_cat_10_n02123394_2434.png
barlow_twins,1,522,NaN,knife,truck,1-0-10,0522_eid_dnn_1-0-10_truck_10_n04467665_54079.png
barlow_twins,1,523,NaN,oven,bird,2-0-10,0523_eid_dnn_2-0-10_bird_10_n01855672_1001.png
barlow_twins,1,524,NaN,oven,bottle,1-0-10,0524_eid_dnn_1-0-10_bottle_10_n04560804_6112.png
barlow_twins,1,525,NaN,airplane,keyboard,1-0-10,0525_eid_dnn_1-0-10_keyboard_10_n04505470_1744.png
barlow_twins,1,526,NaN,oven,boat,32-0-10,0526_eid_dnn_32-0-10_boat_10_n02951358_15087.png
barlow_twins,1,527,NaN,keyboard,bottle,4-0-10,0527_eid_dnn_4-0-10_bottle_10_n04557648_10051.png
barlow_twins,1,528,NaN,oven,bear,64-0-10,0528_eid_dnn_64-0-10_bear_10_n02134084_5794.png
barlow_twins,1,529,NaN,airplane,keyboard,4-0-10,0529_eid_dnn_4-0-10_keyboard_10_n04505470_751.png
barlow_twins,1,530,NaN,airplane,boat,128-0-10,0530_eid_dnn_128-0-10_boat_10_n04273569_9306.png
barlow_twins,1,531,NaN,bottle,chair,16-0-10,0531_eid_dnn_16-0-10_chair_10_n02791124_9162.png
barlow_twins,1,532,NaN,bicycle,bicycle,128-0-10,0532_eid_dnn_128-0-10_bicycle_10_n02835271_25033.png
barlow_twins,1,533,NaN,airplane,keyboard,128-0-10,0533_eid_dnn_128-0-10_keyboard_10_n04505470_3905.png
barlow_twins,1,534,NaN,oven,knife,4-0-10,0534_eid_dnn_4-0-10_knife_10_n03041632_32054.png
barlow_twins,1,535,NaN,chair,clock,8-0-10,0535_eid_dnn_8-0-10_clock_10_n03196217_13380.png
barlow_twins,1,536,NaN,keyboard,chair,32-0-10,0536_eid_dnn_32-0-10_chair_10_n03376595_8083.png
barlow_twins,1,537,NaN,car,cat,8-0-10,0537_eid_dnn_8-0-10_cat_10_n02125311_47927.png
barlow_twins,1,538,NaN,bottle,boat,64-0-10,0538_eid_dnn_64-0-10_boat_10_n04273569_1141.png
barlow_twins,1,539,NaN,oven,dog,64-0-10,0539_eid_dnn_64-0-10_dog_10_n02097130_5859.png
barlow_twins,1,540,NaN,keyboard,dog,16-0-10,0540_eid_dnn_16-0-10_dog_10_n02090721_835.png
barlow_twins,1,541,NaN,airplane,bear,128-0-10,0541_eid_dnn_128-0-10_bear_10_n02132136_15806.png
barlow_twins,1,542,NaN,bottle,cat,128-0-10,0542_eid_dnn_128-0-10_cat_10_n02124075_12069.png
barlow_twins,1,543,NaN,airplane,oven,2-0-10,0543_eid_dnn_2-0-10_oven_10_n04111531_21382.png
barlow_twins,1,544,NaN,oven,cat,1-0-10,0544_eid_dnn_1-0-10_cat_10_n02123597_2009.png
barlow_twins,1,545,NaN,oven,oven,32-0-10,0545_eid_dnn_32-0-10_oven_10_n04111531_4392.png
barlow_twins,1,546,NaN,bottle,boat,4-0-10,0546_eid_dnn_4-0-10_boat_10_n03344393_640.png
barlow_twins,1,547,NaN,bottle,car,4-0-10,0547_eid_dnn_4-0-10_car_10_n02814533_245.png
barlow_twins,1,548,NaN,bottle,bird,1-0-10,0548_eid_dnn_1-0-10_bird_10_n01530575_3831.png
barlow_twins,1,549,NaN,airplane,truck,2-0-10,0549_eid_dnn_2-0-10_truck_10_n04467665_32276.png
barlow_twins,1,550,NaN,airplane,elephant,64-0-10,0550_eid_dnn_64-0-10_elephant_10_n02504458_5941.png
barlow_twins,1,551,NaN,oven,elephant,4-0-10,0551_eid_dnn_4-0-10_elephant_10_n02504013_9796.png
barlow_twins,1,552,NaN,bottle,airplane,4-0-10,0552_eid_dnn_4-0-10_airplane_10_n02690373_8214.png
barlow_twins,1,553,NaN,knife,airplane,1-0-10,0553_eid_dnn_1-0-10_airplane_10_n02690373_8967.png
barlow_twins,1,554,NaN,airplane,elephant,64-0-10,0554_eid_dnn_64-0-10_elephant_10_n02504458_7642.png
barlow_twins,1,555,NaN,car,boat,1-0-10,0555_eid_dnn_1-0-10_boat_10_n04273569_15455.png
barlow_twins,1,556,NaN,keyboard,knife,8-0-10,0556_eid_dnn_8-0-10_knife_10_n03041632_3063.png
barlow_twins,1,557,NaN,elephant,bottle,4-0-10,0557_eid_dnn_4-0-10_bottle_10_n03937543_4912.png
barlow_twins,1,558,NaN,oven,oven,4-0-10,0558_eid_dnn_4-0-10_oven_10_n04111531_5776.png
barlow_twins,1,559,NaN,airplane,bottle,128-0-10,0559_eid_dnn_128-0-10_bottle_10_n03983396_4540.png
barlow_twins,1,560,NaN,elephant,knife,2-0-10,0560_eid_dnn_2-0-10_knife_10_n03041632_965.png
barlow_twins,1,561,NaN,oven,knife,32-0-10,0561_eid_dnn_32-0-10_knife_10_n03041632_12949.png
barlow_twins,1,562,NaN,knife,knife,16-0-10,0562_eid_dnn_16-0-10_knife_10_n03041632_18766.png
barlow_twins,1,563,NaN,oven,keyboard,8-0-10,0563_eid_dnn_8-0-10_keyboard_10_n04505470_2869.png
barlow_twins,1,564,NaN,bottle,bicycle,4-0-10,0564_eid_dnn_4-0-10_bicycle_10_n02835271_18537.png
barlow_twins,1,565,NaN,elephant,clock,32-0-10,0565_eid_dnn_32-0-10_clock_10_n04548280_1119.png
barlow_twins,1,566,NaN,oven,oven,1-0-10,0566_eid_dnn_1-0-10_oven_10_n04111531_687.png
barlow_twins,1,567,NaN,oven,chair,64-0-10,0567_eid_dnn_64-0-10_chair_10_n03376595_3038.png
barlow_twins,1,568,NaN,keyboard,bicycle,16-0-10,0568_eid_dnn_16-0-10_bicycle_10_n02835271_3989.png
barlow_twins,1,569,NaN,oven,dog,64-0-10,0569_eid_dnn_64-0-10_dog_10_n02096437_4563.png
barlow_twins,1,570,NaN,keyboard,clock,32-0-10,0570_eid_dnn_32-0-10_clock_10_n02708093_685.png
barlow_twins,1,571,NaN,oven,boat,32-0-10,0571_eid_dnn_32-0-10_boat_10_n03662601_8360.png
barlow_twins,1,572,NaN,chair,keyboard,8-0-10,0572_eid_dnn_8-0-10_keyboard_10_n03085013_17035.png
barlow_twins,1,573,NaN,oven,dog,64-0-10,0573_eid_dnn_64-0-10_dog_10_n02110063_12166.png
barlow_twins,1,574,NaN,elephant,dog,2-0-10,0574_eid_dnn_2-0-10_dog_10_n02108422_6951.png
barlow_twins,1,575,NaN,knife,bear,64-0-10,0575_eid_dnn_64-0-10_bear_10_n02134418_912.png
barlow_twins,1,576,NaN,elephant,clock,4-0-10,0576_eid_dnn_4-0-10_clock_10_n02708093_564.png
barlow_twins,1,577,NaN,oven,car,64-0-10,0577_eid_dnn_64-0-10_car_10_n04285008_11893.png
barlow_twins,1,578,NaN,oven,knife,64-0-10,0578_eid_dnn_64-0-10_knife_10_n03041632_20504.png
barlow_twins,1,579,NaN,knife,clock,4-0-10,0579_eid_dnn_4-0-10_clock_10_n04548280_4557.png
barlow_twins,1,580,NaN,oven,clock,32-0-10,0580_eid_dnn_32-0-10_clock_10_n02708093_3360.png
barlow_twins,1,581,NaN,car,bear,16-0-10,0581_eid_dnn_16-0-10_bear_10_n02134084_617.png
barlow_twins,1,582,NaN,keyboard,dog,1-0-10,0582_eid_dnn_1-0-10_dog_10_n02093991_4081.png
barlow_twins,1,583,NaN,keyboard,elephant,16-0-10,0583_eid_dnn_16-0-10_elephant_10_n02504458_1727.png
barlow_twins,1,584,NaN,airplane,clock,32-0-10,0584_eid_dnn_32-0-10_clock_10_n04548280_16295.png
barlow_twins,1,585,NaN,bottle,boat,4-0-10,0585_eid_dnn_4-0-10_boat_10_n02951358_16217.png
barlow_twins,1,586,NaN,keyboard,airplane,8-0-10,0586_eid_dnn_8-0-10_airplane_10_n02690373_7536.png
barlow_twins,1,587,NaN,oven,cat,8-0-10,0587_eid_dnn_8-0-10_cat_10_n02123597_22140.png
barlow_twins,1,588,NaN,oven,bottle,128-0-10,0588_eid_dnn_128-0-10_bottle_10_n04591713_8914.png
barlow_twins,1,589,NaN,airplane,car,128-0-10,0589_eid_dnn_128-0-10_car_10_n03100240_963.png
barlow_twins,1,590,NaN,keyboard,boat,32-0-10,0590_eid_dnn_32-0-10_boat_10_n02951358_18762.png
barlow_twins,1,591,NaN,car,bear,32-0-10,0591_eid_dnn_32-0-10_bear_10_n02134418_2633.png
barlow_twins,1,592,NaN,oven,airplane,64-0-10,0592_eid_dnn_64-0-10_airplane_10_n02690373_1169.png
barlow_twins,1,593,NaN,clock,bicycle,2-0-10,0593_eid_dnn_2-0-10_bicycle_10_n03792782_12704.png
barlow_twins,1,594,NaN,oven,dog,64-0-10,0594_eid_dnn_64-0-10_dog_10_n02088238_2973.png
barlow_twins,1,595,NaN,airplane,knife,32-0-10,0595_eid_dnn_32-0-10_knife_10_n03041632_41493.png
barlow_twins,1,596,NaN,oven,bottle,128-0-10,0596_eid_dnn_128-0-10_bottle_10_n03983396_2959.png
barlow_twins,1,597,NaN,knife,clock,1-0-10,0597_eid_dnn_1-0-10_clock_10_n02708093_2843.png
barlow_twins,1,598,NaN,bear,oven,8-0-10,0598_eid_dnn_8-0-10_oven_10_n04111531_12952.png
barlow_twins,1,599,NaN,elephant,bear,16-0-10,0599_eid_dnn_16-0-10_bear_10_n02134418_2891.png
barlow_twins,1,600,NaN,car,truck,32-0-10,0600_eid_dnn_32-0-10_truck_10_n03417042_3862.png
barlow_twins,1,601,NaN,keyboard,elephant,16-0-10,0601_eid_dnn_16-0-10_elephant_10_n02504458_2054.png
barlow_twins,1,602,NaN,knife,airplane,1-0-10,0602_eid_dnn_1-0-10_airplane_10_n02690373_7355.png
barlow_twins,1,603,NaN,oven,knife,128-0-10,0603_eid_dnn_128-0-10_knife_10_n03041632_22738.png
barlow_twins,1,604,NaN,bottle,oven,1-0-10,0604_eid_dnn_1-0-10_oven_10_n04111531_4250.png
barlow_twins,1,605,NaN,keyboard,clock,8-0-10,0605_eid_dnn_8-0-10_clock_10_n04548280_7826.png
barlow_twins,1,606,NaN,oven,clock,64-0-10,0606_eid_dnn_64-0-10_clock_10_n04548280_17198.png
barlow_twins,1,607,NaN,oven,bicycle,128-0-10,0607_eid_dnn_128-0-10_bicycle_10_n02835271_4726.png
barlow_twins,1,608,NaN,bottle,chair,128-0-10,0608_eid_dnn_128-0-10_chair_10_n03376595_9079.png
barlow_twins,1,609,NaN,keyboard,airplane,4-0-10,0609_eid_dnn_4-0-10_airplane_10_n02690373_2324.png
barlow_twins,1,610,NaN,oven,dog,64-0-10,0610_eid_dnn_64-0-10_dog_10_n02104029_5234.png
barlow_twins,1,611,NaN,oven,bottle,2-0-10,0611_eid_dnn_2-0-10_bottle_10_n04591713_335.png
barlow_twins,1,612,NaN,oven,airplane,2-0-10,0612_eid_dnn_2-0-10_airplane_10_n02690373_4148.png
barlow_twins,1,613,NaN,elephant,bear,2-0-10,0613_eid_dnn_2-0-10_bear_10_n02134084_18800.png
barlow_twins,1,614,NaN,chair,boat,16-0-10,0614_eid_dnn_16-0-10_boat_10_n03662601_1191.png
barlow_twins,1,615,NaN,knife,keyboard,2-0-10,0615_eid_dnn_2-0-10_keyboard_10_n04505470_4505.png
barlow_twins,1,616,NaN,bear,knife,4-0-10,0616_eid_dnn_4-0-10_knife_10_n03041632_1607.png
barlow_twins,1,617,NaN,oven,car,32-0-10,0617_eid_dnn_32-0-10_car_10_n03100240_11224.png
barlow_twins,1,618,NaN,oven,airplane,128-0-10,0618_eid_dnn_128-0-10_airplane_10_n02690373_7142.png
barlow_twins,1,619,NaN,knife,airplane,4-0-10,0619_eid_dnn_4-0-10_airplane_10_n02690373_18693.png
barlow_twins,1,620,NaN,keyboard,chair,8-0-10,0620_eid_dnn_8-0-10_chair_10_n03376595_3214.png
barlow_twins,1,621,NaN,keyboard,boat,16-0-10,0621_eid_dnn_16-0-10_boat_10_n03662601_17198.png
barlow_twins,1,622,NaN,oven,knife,32-0-10,0622_eid_dnn_32-0-10_knife_10_n03041632_27879.png
barlow_twins,1,623,NaN,oven,chair,1-0-10,0623_eid_dnn_1-0-10_chair_10_n02791124_3601.png
barlow_twins,1,624,NaN,elephant,bicycle,16-0-10,0624_eid_dnn_16-0-10_bicycle_10_n03792782_10876.png
barlow_twins,1,625,NaN,keyboard,clock,4-0-10,0625_eid_dnn_4-0-10_clock_10_n03196217_5568.png
barlow_twins,1,626,NaN,keyboard,truck,16-0-10,0626_eid_dnn_16-0-10_truck_10_n04467665_2695.png
barlow_twins,1,627,NaN,elephant,elephant,8-0-10,0627_eid_dnn_8-0-10_elephant_10_n02504013_4005.png
barlow_twins,1,628,NaN,airplane,elephant,128-0-10,0628_eid_dnn_128-0-10_elephant_10_n02504458_3094.png
barlow_twins,1,629,NaN,oven,bear,8-0-10,0629_eid_dnn_8-0-10_bear_10_n02134418_6133.png
barlow_twins,1,630,NaN,airplane,truck,128-0-10,0630_eid_dnn_128-0-10_truck_10_n03796401_9953.png
barlow_twins,1,631,NaN,bear,cat,8-0-10,0631_eid_dnn_8-0-10_cat_10_n02123597_10199.png
barlow_twins,1,632,NaN,knife,cat,2-0-10,0632_eid_dnn_2-0-10_cat_10_n02124075_11153.png
barlow_twins,1,633,NaN,oven,bicycle,64-0-10,0633_eid_dnn_64-0-10_bicycle_10_n02835271_7900.png
barlow_twins,1,634,NaN,elephant,knife,4-0-10,0634_eid_dnn_4-0-10_knife_10_n03041632_12748.png
barlow_twins,1,635,NaN,car,bear,16-0-10,0635_eid_dnn_16-0-10_bear_10_n02134418_244.png
barlow_twins,1,636,NaN,keyboard,bicycle,4-0-10,0636_eid_dnn_4-0-10_bicycle_10_n03792782_22908.png
barlow_twins,1,637,NaN,keyboard,elephant,8-0-10,0637_eid_dnn_8-0-10_elephant_10_n02504458_3234.png
barlow_twins,1,638,NaN,keyboard,clock,1-0-10,0638_eid_dnn_1-0-10_clock_10_n03196217_3063.png
barlow_twins,1,639,NaN,elephant,clock,4-0-10,0639_eid_dnn_4-0-10_clock_10_n03196217_5688.png
barlow_twins,1,640,NaN,oven,bottle,2-0-10,0640_eid_dnn_2-0-10_bottle_10_n04591713_2123.png
barlow_twins,1,641,NaN,elephant,knife,2-0-10,0641_eid_dnn_2-0-10_knife_10_n03041632_13424.png
barlow_twins,1,642,NaN,oven,chair,64-0-10,0642_eid_dnn_64-0-10_chair_10_n03376595_989.png
barlow_twins,1,643,NaN,car,elephant,8-0-10,0643_eid_dnn_8-0-10_elephant_10_n02504458_3953.png
barlow_twins,1,644,NaN,elephant,bird,4-0-10,0644_eid_dnn_4-0-10_bird_10_n01796340_4181.png
barlow_twins,1,645,NaN,airplane,bicycle,1-0-10,0645_eid_dnn_1-0-10_bicycle_10_n02835271_17357.png
barlow_twins,1,646,NaN,knife,bird,1-0-10,0646_eid_dnn_1-0-10_bird_10_n02006656_9134.png
barlow_twins,1,647,NaN,truck,bear,64-0-10,0647_eid_dnn_64-0-10_bear_10_n02134418_1307.png
barlow_twins,1,648,NaN,oven,chair,64-0-10,0648_eid_dnn_64-0-10_chair_10_n02791124_4432.png
barlow_twins,1,649,NaN,airplane,oven,32-0-10,0649_eid_dnn_32-0-10_oven_10_n04111531_21309.png
barlow_twins,1,650,NaN,keyboard,car,16-0-10,0650_eid_dnn_16-0-10_car_10_n04285008_6325.png
barlow_twins,1,651,NaN,keyboard,boat,32-0-10,0651_eid_dnn_32-0-10_boat_10_n03344393_5599.png
barlow_twins,1,652,NaN,oven,cat,32-0-10,0652_eid_dnn_32-0-10_cat_10_n02123159_7616.png
barlow_twins,1,653,NaN,elephant,car,4-0-10,0653_eid_dnn_4-0-10_car_10_n02814533_11273.png
barlow_twins,1,654,NaN,knife,oven,1-0-10,0654_eid_dnn_1-0-10_oven_10_n04111531_5357.png
barlow_twins,1,655,NaN,airplane,truck,4-0-10,0655_eid_dnn_4-0-10_truck_10_n04467665_68250.png
barlow_twins,1,656,NaN,knife,dog,2-0-10,0656_eid_dnn_2-0-10_dog_10_n02102177_3185.png
barlow_twins,1,657,NaN,keyboard,truck,8-0-10,0657_eid_dnn_8-0-10_truck_10_n03417042_11439.png
barlow_twins,1,658,NaN,oven,keyboard,8-0-10,0658_eid_dnn_8-0-10_keyboard_10_n04505470_4776.png
barlow_twins,1,659,NaN,knife,chair,1-0-10,0659_eid_dnn_1-0-10_chair_10_n04099969_4675.png
barlow_twins,1,660,NaN,keyboard,chair,16-0-10,0660_eid_dnn_16-0-10_chair_10_n02791124_14.png
barlow_twins,1,661,NaN,knife,dog,1-0-10,0661_eid_dnn_1-0-10_dog_10_n02086646_5896.png
barlow_twins,1,662,NaN,keyboard,truck,16-0-10,0662_eid_dnn_16-0-10_truck_10_n03796401_7421.png
barlow_twins,1,663,NaN,oven,keyboard,128-0-10,0663_eid_dnn_128-0-10_keyboard_10_n04505470_713.png
barlow_twins,1,664,NaN,oven,clock,64-0-10,0664_eid_dnn_64-0-10_clock_10_n04548280_1324.png
barlow_twins,1,665,NaN,oven,bottle,8-0-10,0665_eid_dnn_8-0-10_bottle_10_n04591713_4474.png
barlow_twins,1,666,NaN,elephant,bird,16-0-10,0666_eid_dnn_16-0-10_bird_10_n01855672_4659.png
barlow_twins,1,667,NaN,airplane,keyboard,1-0-10,0667_eid_dnn_1-0-10_keyboard_10_n03085013_8677.png
barlow_twins,1,668,NaN,elephant,bear,2-0-10,0668_eid_dnn_2-0-10_bear_10_n02134418_3584.png
barlow_twins,1,669,NaN,keyboard,airplane,4-0-10,0669_eid_dnn_4-0-10_airplane_10_n02690373_4061.png
barlow_twins,1,670,NaN,car,bear,4-0-10,0670_eid_dnn_4-0-10_bear_10_n02133161_499.png
barlow_twins,1,671,NaN,oven,chair,2-0-10,0671_eid_dnn_2-0-10_chair_10_n03376595_3462.png
barlow_twins,1,672,NaN,car,boat,4-0-10,0672_eid_dnn_4-0-10_boat_10_n04273569_16362.png
barlow_twins,1,673,NaN,bear,airplane,1-0-10,0673_eid_dnn_1-0-10_airplane_10_n02690373_8592.png
barlow_twins,1,674,NaN,airplane,chair,32-0-10,0674_eid_dnn_32-0-10_chair_10_n04099969_6217.png
barlow_twins,1,675,NaN,oven,bottle,1-0-10,0675_eid_dnn_1-0-10_bottle_10_n03937543_299.png
barlow_twins,1,676,NaN,oven,clock,2-0-10,0676_eid_dnn_2-0-10_clock_10_n03196217_300.png
barlow_twins,1,677,NaN,clock,bear,32-0-10,0677_eid_dnn_32-0-10_bear_10_n02132136_8516.png
barlow_twins,1,678,NaN,airplane,bottle,4-0-10,0678_eid_dnn_4-0-10_bottle_10_n04557648_1938.png
barlow_twins,1,679,NaN,clock,airplane,16-0-10,0679_eid_dnn_16-0-10_airplane_10_n02690373_19118.png
barlow_twins,1,680,NaN,airplane,oven,128-0-10,0680_eid_dnn_128-0-10_oven_10_n04111531_891.png
barlow_twins,1,681,NaN,oven,elephant,2-0-10,0681_eid_dnn_2-0-10_elephant_10_n02504458_37.png
barlow_twins,1,682,NaN,oven,chair,2-0-10,0682_eid_dnn_2-0-10_chair_10_n04429376_24375.png
barlow_twins,1,683,NaN,oven,knife,64-0-10,0683_eid_dnn_64-0-10_knife_10_n03041632_46914.png
barlow_twins,1,684,NaN,knife,truck,2-0-10,0684_eid_dnn_2-0-10_truck_10_n04467665_78325.png
barlow_twins,1,685,NaN,knife,elephant,8-0-10,0685_eid_dnn_8-0-10_elephant_10_n02504013_2438.png
barlow_twins,1,686,NaN,keyboard,boat,4-0-10,0686_eid_dnn_4-0-10_boat_10_n02951358_13456.png
barlow_twins,1,687,NaN,oven,keyboard,32-0-10,0687_eid_dnn_32-0-10_keyboard_10_n04505470_4922.png
barlow_twins,1,688,NaN,knife,boat,2-0-10,0688_eid_dnn_2-0-10_boat_10_n02951358_4363.png
barlow_twins,1,689,NaN,airplane,keyboard,2-0-10,0689_eid_dnn_2-0-10_keyboard_10_n03085013_28083.png
barlow_twins,1,690,NaN,oven,chair,2-0-10,0690_eid_dnn_2-0-10_chair_10_n02791124_17035.png
barlow_twins,1,691,NaN,keyboard,bird,4-0-10,0691_eid_dnn_4-0-10_bird_10_n02028035_32557.png
barlow_twins,1,692,NaN,oven,bicycle,128-0-10,0692_eid_dnn_128-0-10_bicycle_10_n02835271_3298.png
barlow_twins,1,693,NaN,keyboard,boat,8-0-10,0693_eid_dnn_8-0-10_boat_10_n02951358_15422.png
barlow_twins,1,694,NaN,knife,cat,1-0-10,0694_eid_dnn_1-0-10_cat_10_n02123597_3398.png
barlow_twins,1,695,NaN,keyboard,boat,4-0-10,0695_eid_dnn_4-0-10_boat_10_n02951358_2330.png
barlow_twins,1,696,NaN,airplane,airplane,128-0-10,0696_eid_dnn_128-0-10_airplane_10_n02690373_6929.png
barlow_twins,1,697,NaN,oven,bottle,8-0-10,0697_eid_dnn_8-0-10_bottle_10_n04560804_16054.png
barlow_twins,1,698,NaN,airplane,knife,128-0-10,0698_eid_dnn_128-0-10_knife_10_n03041632_2438.png
barlow_twins,1,699,NaN,keyboard,bird,2-0-10,0699_eid_dnn_2-0-10_bird_10_n02056570_9511.png
barlow_twins,1,700,NaN,airplane,elephant,128-0-10,0700_eid_dnn_128-0-10_elephant_10_n02504013_9809.png
barlow_twins,1,701,NaN,oven,cat,32-0-10,0701_eid_dnn_32-0-10_cat_10_n02123394_4167.png
barlow_twins,1,702,NaN,oven,dog,128-0-10,0702_eid_dnn_128-0-10_dog_10_n02101556_1042.png
barlow_twins,1,703,NaN,knife,elephant,64-0-10,0703_eid_dnn_64-0-10_elephant_10_n02504013_10765.png
barlow_twins,1,704,NaN,oven,airplane,1-0-10,0704_eid_dnn_1-0-10_airplane_10_n02690373_8653.png
barlow_twins,1,705,NaN,keyboard,elephant,16-0-10,0705_eid_dnn_16-0-10_elephant_10_n02504013_3172.png
barlow_twins,1,706,NaN,keyboard,truck,8-0-10,0706_eid_dnn_8-0-10_truck_10_n04467665_21900.png
barlow_twins,1,707,NaN,oven,knife,32-0-10,0707_eid_dnn_32-0-10_knife_10_n03041632_13225.png
barlow_twins,1,708,NaN,bottle,cat,8-0-10,0708_eid_dnn_8-0-10_cat_10_n02123045_964.png
barlow_twins,1,709,NaN,elephant,elephant,16-0-10,0709_eid_dnn_16-0-10_elephant_10_n02504458_151.png
barlow_twins,1,710,NaN,car,bicycle,2-0-10,0710_eid_dnn_2-0-10_bicycle_10_n03792782_1933.png
barlow_twins,1,711,NaN,knife,keyboard,2-0-10,0711_eid_dnn_2-0-10_keyboard_10_n03085013_4636.png
barlow_twins,1,712,NaN,car,truck,32-0-10,0712_eid_dnn_32-0-10_truck_10_n04467665_62439.png
barlow_twins,1,713,NaN,oven,bear,128-0-10,0713_eid_dnn_128-0-10_bear_10_n02134084_2516.png
barlow_twins,1,714,NaN,keyboard,bottle,16-0-10,0714_eid_dnn_16-0-10_bottle_10_n04560804_30659.png
barlow_twins,1,715,NaN,airplane,chair,16-0-10,0715_eid_dnn_16-0-10_chair_10_n03376595_3130.png
barlow_twins,1,716,NaN,keyboard,cat,32-0-10,0716_eid_dnn_32-0-10_cat_10_n02123045_7764.png
barlow_twins,1,717,NaN,oven,keyboard,2-0-10,0717_eid_dnn_2-0-10_keyboard_10_n04505470_568.png
barlow_twins,1,718,NaN,car,bear,1-0-10,0718_eid_dnn_1-0-10_bear_10_n02134418_4177.png
barlow_twins,1,719,NaN,oven,airplane,64-0-10,0719_eid_dnn_64-0-10_airplane_10_n02690373_3617.png
barlow_twins,1,720,NaN,keyboard,boat,8-0-10,0720_eid_dnn_8-0-10_boat_10_n03662601_33374.png
barlow_twins,1,721,NaN,knife,dog,1-0-10,0721_eid_dnn_1-0-10_dog_10_n02109047_26316.png
barlow_twins,1,722,NaN,clock,boat,4-0-10,0722_eid_dnn_4-0-10_boat_10_n03344393_3824.png
barlow_twins,1,723,NaN,truck,bicycle,1-0-10,0723_eid_dnn_1-0-10_bicycle_10_n02835271_17184.png
barlow_twins,1,724,NaN,bicycle,chair,128-0-10,0724_eid_dnn_128-0-10_chair_10_n02791124_3671.png
barlow_twins,1,725,NaN,car,clock,8-0-10,0725_eid_dnn_8-0-10_clock_10_n03196217_911.png
barlow_twins,1,726,NaN,elephant,knife,1-0-10,0726_eid_dnn_1-0-10_knife_10_n03041632_26314.png
barlow_twins,1,727,NaN,bottle,dog,32-0-10,0727_eid_dnn_32-0-10_dog_10_n02088238_4028.png
barlow_twins,1,728,NaN,oven,chair,64-0-10,0728_eid_dnn_64-0-10_chair_10_n03376595_3015.png
barlow_twins,1,729,NaN,bottle,boat,4-0-10,0729_eid_dnn_4-0-10_boat_10_n04612504_21132.png
barlow_twins,1,730,NaN,truck,bottle,2-0-10,0730_eid_dnn_2-0-10_bottle_10_n04591713_6351.png
barlow_twins,1,731,NaN,oven,keyboard,128-0-10,0731_eid_dnn_128-0-10_keyboard_10_n03085013_21645.png
barlow_twins,1,732,NaN,elephant,bicycle,16-0-10,0732_eid_dnn_16-0-10_bicycle_10_n03792782_11995.png
barlow_twins,1,733,NaN,clock,truck,4-0-10,0733_eid_dnn_4-0-10_truck_10_n03417042_16238.png
barlow_twins,1,734,NaN,keyboard,airplane,32-0-10,0734_eid_dnn_32-0-10_airplane_10_n02690373_1611.png
barlow_twins,1,735,NaN,oven,chair,2-0-10,0735_eid_dnn_2-0-10_chair_10_n02791124_11523.png
barlow_twins,1,736,NaN,airplane,oven,128-0-10,0736_eid_dnn_128-0-10_oven_10_n04111531_12129.png
barlow_twins,1,737,NaN,elephant,chair,1-0-10,0737_eid_dnn_1-0-10_chair_10_n03376595_13578.png
barlow_twins,1,738,NaN,oven,oven,64-0-10,0738_eid_dnn_64-0-10_oven_10_n04111531_136.png
barlow_twins,1,739,NaN,oven,truck,64-0-10,0739_eid_dnn_64-0-10_truck_10_n03417042_26814.png
barlow_twins,1,740,NaN,oven,oven,128-0-10,0740_eid_dnn_128-0-10_oven_10_n04111531_4795.png
barlow_twins,1,741,NaN,oven,car,32-0-10,0741_eid_dnn_32-0-10_car_10_n04285008_5869.png
barlow_twins,1,742,NaN,oven,knife,64-0-10,0742_eid_dnn_64-0-10_knife_10_n03041632_21425.png
barlow_twins,1,743,NaN,oven,boat,1-0-10,0743_eid_dnn_1-0-10_boat_10_n03344393_2301.png
barlow_twins,1,744,NaN,oven,oven,2-0-10,0744_eid_dnn_2-0-10_oven_10_n04111531_10476.png
barlow_twins,1,745,NaN,elephant,chair,1-0-10,0745_eid_dnn_1-0-10_chair_10_n03376595_10149.png
barlow_twins,1,746,NaN,oven,keyboard,64-0-10,0746_eid_dnn_64-0-10_keyboard_10_n03085013_1483.png
barlow_twins,1,747,NaN,airplane,bottle,128-0-10,0747_eid_dnn_128-0-10_bottle_10_n04591713_2555.png
barlow_twins,1,748,NaN,keyboard,airplane,2-0-10,0748_eid_dnn_2-0-10_airplane_10_n02690373_4851.png
barlow_twins,1,749,NaN,car,dog,32-0-10,0749_eid_dnn_32-0-10_dog_10_n02096051_2151.png
barlow_twins,1,750,NaN,knife,elephant,2-0-10,0750_eid_dnn_2-0-10_elephant_10_n02504013_1708.png
barlow_twins,1,751,NaN,oven,elephant,32-0-10,0751_eid_dnn_32-0-10_elephant_10_n02504013_7732.png
barlow_twins,1,752,NaN,oven,truck,32-0-10,0752_eid_dnn_32-0-10_truck_10_n04467665_9833.png
barlow_twins,1,753,NaN,airplane,oven,128-0-10,0753_eid_dnn_128-0-10_oven_10_n04111531_5328.png
barlow_twins,1,754,NaN,oven,bottle,2-0-10,0754_eid_dnn_2-0-10_bottle_10_n04557648_954.png
barlow_twins,1,755,NaN,keyboard,elephant,16-0-10,0755_eid_dnn_16-0-10_elephant_10_n02504013_3857.png
barlow_twins,1,756,NaN,knife,dog,8-0-10,0756_eid_dnn_8-0-10_dog_10_n02101388_9815.png
barlow_twins,1,757,NaN,oven,airplane,128-0-10,0757_eid_dnn_128-0-10_airplane_10_n02690373_5141.png
barlow_twins,1,758,NaN,clock,cat,16-0-10,0758_eid_dnn_16-0-10_cat_10_n02123045_6514.png
barlow_twins,1,759,NaN,car,bicycle,1-0-10,0759_eid_dnn_1-0-10_bicycle_10_n03792782_12074.png
barlow_twins,1,760,NaN,knife,bird,1-0-10,0760_eid_dnn_1-0-10_bird_10_n02027492_5222.png
barlow_twins,1,761,NaN,oven,bird,64-0-10,0761_eid_dnn_64-0-10_bird_10_n02013706_5454.png
barlow_twins,1,762,NaN,knife,bear,4-0-10,0762_eid_dnn_4-0-10_bear_10_n02133161_10700.png
barlow_twins,1,763,NaN,airplane,bottle,8-0-10,0763_eid_dnn_8-0-10_bottle_10_n04591713_807.png
barlow_twins,1,764,NaN,oven,bird,32-0-10,0764_eid_dnn_32-0-10_bird_10_n02028035_2219.png
barlow_twins,1,765,NaN,oven,cat,64-0-10,0765_eid_dnn_64-0-10_cat_10_n02123394_5071.png
barlow_twins,1,766,NaN,elephant,clock,16-0-10,0766_eid_dnn_16-0-10_clock_10_n02708093_3173.png
barlow_twins,1,767,NaN,clock,bird,8-0-10,0767_eid_dnn_8-0-10_bird_10_n02013706_406.png
barlow_twins,1,768,NaN,airplane,truck,64-0-10,0768_eid_dnn_64-0-10_truck_10_n04467665_23731.png
barlow_twins,1,769,NaN,keyboard,car,16-0-10,0769_eid_dnn_16-0-10_car_10_n03100240_16803.png
barlow_twins,1,770,NaN,airplane,knife,128-0-10,0770_eid_dnn_128-0-10_knife_10_n03041632_10999.png
barlow_twins,1,771,NaN,elephant,dog,16-0-10,0771_eid_dnn_16-0-10_dog_10_n02111129_5833.png
barlow_twins,1,772,NaN,keyboard,keyboard,16-0-10,0772_eid_dnn_16-0-10_keyboard_10_n04505470_3961.png
barlow_twins,1,773,NaN,airplane,knife,128-0-10,0773_eid_dnn_128-0-10_knife_10_n03041632_33584.png
barlow_twins,1,774,NaN,car,oven,16-0-10,0774_eid_dnn_16-0-10_oven_10_n04111531_5792.png
barlow_twins,1,775,NaN,bottle,airplane,4-0-10,0775_eid_dnn_4-0-10_airplane_10_n02690373_6429.png
barlow_twins,1,776,NaN,keyboard,airplane,1-0-10,0776_eid_dnn_1-0-10_airplane_10_n02690373_3728.png
barlow_twins,1,777,NaN,airplane,car,64-0-10,0777_eid_dnn_64-0-10_car_10_n02814533_17956.png
barlow_twins,1,778,NaN,knife,keyboard,4-0-10,0778_eid_dnn_4-0-10_keyboard_10_n04505470_3306.png
barlow_twins,1,779,NaN,knife,airplane,2-0-10,0779_eid_dnn_2-0-10_airplane_10_n02690373_1441.png
barlow_twins,1,780,NaN,car,car,16-0-10,0780_eid_dnn_16-0-10_car_10_n03100240_7788.png
barlow_twins,1,781,NaN,truck,elephant,1-0-10,0781_eid_dnn_1-0-10_elephant_10_n02504458_4248.png
barlow_twins,1,782,NaN,oven,car,128-0-10,0782_eid_dnn_128-0-10_car_10_n02814533_64988.png
barlow_twins,1,783,NaN,car,bear,8-0-10,0783_eid_dnn_8-0-10_bear_10_n02134418_5131.png
barlow_twins,1,784,NaN,elephant,bear,16-0-10,0784_eid_dnn_16-0-10_bear_10_n02132136_2900.png
barlow_twins,1,785,NaN,car,bear,4-0-10,0785_eid_dnn_4-0-10_bear_10_n02134418_6030.png
barlow_twins,1,786,NaN,knife,bear,4-0-10,0786_eid_dnn_4-0-10_bear_10_n02133161_334.png
barlow_twins,1,787,NaN,keyboard,bear,16-0-10,0787_eid_dnn_16-0-10_bear_10_n02132136_2765.png
barlow_twins,1,788,NaN,oven,keyboard,128-0-10,0788_eid_dnn_128-0-10_keyboard_10_n03085013_23943.png
barlow_twins,1,789,NaN,airplane,bird,128-0-10,0789_eid_dnn_128-0-10_bird_10_n02051845_2316.png
barlow_twins,1,790,NaN,elephant,bear,1-0-10,0790_eid_dnn_1-0-10_bear_10_n02134418_2545.png
barlow_twins,1,791,NaN,oven,clock,32-0-10,0791_eid_dnn_32-0-10_clock_10_n02708093_3669.png
barlow_twins,1,792,NaN,knife,dog,2-0-10,0792_eid_dnn_2-0-10_dog_10_n02101006_1160.png
barlow_twins,1,793,NaN,bottle,cat,16-0-10,0793_eid_dnn_16-0-10_cat_10_n02123394_5907.png
barlow_twins,1,794,NaN,knife,truck,1-0-10,0794_eid_dnn_1-0-10_truck_10_n04467665_49282.png
barlow_twins,1,795,NaN,car,chair,8-0-10,0795_eid_dnn_8-0-10_chair_10_n04099969_9017.png
barlow_twins,1,796,NaN,elephant,dog,4-0-10,0796_eid_dnn_4-0-10_dog_10_n02113624_1212.png
barlow_twins,1,797,NaN,oven,oven,64-0-10,0797_eid_dnn_64-0-10_oven_10_n04111531_769.png
barlow_twins,1,798,NaN,oven,dog,2-0-10,0798_eid_dnn_2-0-10_dog_10_n02090721_5234.png
barlow_twins,1,799,NaN,oven,airplane,64-0-10,0799_eid_dnn_64-0-10_airplane_10_n02690373_10012.png
barlow_twins,1,800,NaN,oven,oven,128-0-10,0800_eid_dnn_128-0-10_oven_10_n04111531_11221.png
barlow_twins,1,801,NaN,oven,oven,4-0-10,0801_eid_dnn_4-0-10_oven_10_n04111531_8046.png
barlow_twins,1,802,NaN,elephant,clock,1-0-10,0802_eid_dnn_1-0-10_clock_10_n02708093_4267.png
barlow_twins,1,803,NaN,bottle,airplane,8-0-10,0803_eid_dnn_8-0-10_airplane_10_n02690373_6836.png
barlow_twins,1,804,NaN,oven,cat,1-0-10,0804_eid_dnn_1-0-10_cat_10_n02123159_8039.png
barlow_twins,1,805,NaN,airplane,bird,128-0-10,0805_eid_dnn_128-0-10_bird_10_n01855032_8576.png
barlow_twins,1,806,NaN,car,clock,1-0-10,0806_eid_dnn_1-0-10_clock_10_n04548280_16233.png
barlow_twins,1,807,NaN,oven,bottle,2-0-10,0807_eid_dnn_2-0-10_bottle_10_n04591713_5406.png
barlow_twins,1,808,NaN,airplane,keyboard,128-0-10,0808_eid_dnn_128-0-10_keyboard_10_n03085013_23561.png
barlow_twins,1,809,NaN,bottle,keyboard,8-0-10,0809_eid_dnn_8-0-10_keyboard_10_n03085013_5812.png
barlow_twins,1,810,NaN,elephant,dog,4-0-10,0810_eid_dnn_4-0-10_dog_10_n02101556_9675.png
barlow_twins,1,811,NaN,oven,truck,32-0-10,0811_eid_dnn_32-0-10_truck_10_n03417042_2812.png
barlow_twins,1,812,NaN,keyboard,boat,2-0-10,0812_eid_dnn_2-0-10_boat_10_n02951358_16803.png
barlow_twins,1,813,NaN,airplane,cat,128-0-10,0813_eid_dnn_128-0-10_cat_10_n02125311_35098.png
barlow_twins,1,814,NaN,oven,bottle,16-0-10,0814_eid_dnn_16-0-10_bottle_10_n03983396_11597.png
barlow_twins,1,815,NaN,knife,truck,8-0-10,0815_eid_dnn_8-0-10_truck_10_n03417042_16370.png
barlow_twins,1,816,NaN,oven,bear,1-0-10,0816_eid_dnn_1-0-10_bear_10_n02133161_4513.png
barlow_twins,1,817,NaN,keyboard,truck,16-0-10,0817_eid_dnn_16-0-10_truck_10_n03417042_4157.png
barlow_twins,1,818,NaN,oven,bird,32-0-10,0818_eid_dnn_32-0-10_bird_10_n01829413_8851.png
barlow_twins,1,819,NaN,airplane,airplane,4-0-10,0819_eid_dnn_4-0-10_airplane_10_n02690373_9802.png
barlow_twins,1,820,NaN,airplane,boat,1-0-10,0820_eid_dnn_1-0-10_boat_10_n02951358_30458.png
barlow_twins,1,821,NaN,keyboard,clock,16-0-10,0821_eid_dnn_16-0-10_clock_10_n03196217_5888.png
barlow_twins,1,822,NaN,keyboard,bicycle,8-0-10,0822_eid_dnn_8-0-10_bicycle_10_n02835271_3642.png
barlow_twins,1,823,NaN,bottle,boat,8-0-10,0823_eid_dnn_8-0-10_boat_10_n04612504_30603.png
barlow_twins,1,824,NaN,keyboard,boat,32-0-10,0824_eid_dnn_32-0-10_boat_10_n03662601_4558.png
barlow_twins,1,825,NaN,airplane,bird,128-0-10,0825_eid_dnn_128-0-10_bird_10_n02009229_5290.png
barlow_twins,1,826,NaN,oven,clock,32-0-10,0826_eid_dnn_32-0-10_clock_10_n02708093_6982.png
barlow_twins,1,827,NaN,oven,truck,1-0-10,0827_eid_dnn_1-0-10_truck_10_n04467665_2797.png
barlow_twins,1,828,NaN,oven,bird,1-0-10,0828_eid_dnn_1-0-10_bird_10_n01798484_4934.png
barlow_twins,1,829,NaN,airplane,oven,16-0-10,0829_eid_dnn_16-0-10_oven_10_n04111531_3805.png
barlow_twins,1,830,NaN,clock,clock,16-0-10,0830_eid_dnn_16-0-10_clock_10_n03196217_5620.png
barlow_twins,1,831,NaN,car,cat,4-0-10,0831_eid_dnn_4-0-10_cat_10_n02123597_2069.png
barlow_twins,1,832,NaN,truck,keyboard,4-0-10,0832_eid_dnn_4-0-10_keyboard_10_n04505470_64.png
barlow_twins,1,833,NaN,oven,elephant,128-0-10,0833_eid_dnn_128-0-10_elephant_10_n02504458_964.png
barlow_twins,1,834,NaN,oven,truck,64-0-10,0834_eid_dnn_64-0-10_truck_10_n03796401_25570.png
barlow_twins,1,835,NaN,airplane,clock,128-0-10,0835_eid_dnn_128-0-10_clock_10_n04548280_4872.png
barlow_twins,1,836,NaN,elephant,dog,2-0-10,0836_eid_dnn_2-0-10_dog_10_n02095570_1434.png
barlow_twins,1,837,NaN,clock,bicycle,1-0-10,0837_eid_dnn_1-0-10_bicycle_10_n03792782_4544.png
barlow_twins,1,838,NaN,keyboard,airplane,8-0-10,0838_eid_dnn_8-0-10_airplane_10_n02690373_6663.png
barlow_twins,1,839,NaN,oven,bottle,64-0-10,0839_eid_dnn_64-0-10_bottle_10_n03983396_14002.png
barlow_twins,1,840,NaN,oven,bicycle,128-0-10,0840_eid_dnn_128-0-10_bicycle_10_n02835271_9944.png
barlow_twins,1,841,NaN,elephant,chair,8-0-10,0841_eid_dnn_8-0-10_chair_10_n03376595_6589.png
barlow_twins,1,842,NaN,oven,airplane,32-0-10,0842_eid_dnn_32-0-10_airplane_10_n02690373_2823.png
barlow_twins,1,843,NaN,airplane,keyboard,1-0-10,0843_eid_dnn_1-0-10_keyboard_10_n03085013_9066.png
barlow_twins,1,844,NaN,keyboard,cat,1-0-10,0844_eid_dnn_1-0-10_cat_10_n02123394_8695.png
barlow_twins,1,845,NaN,bottle,cat,32-0-10,0845_eid_dnn_32-0-10_cat_10_n02125311_14714.png
barlow_twins,1,846,NaN,oven,oven,64-0-10,0846_eid_dnn_64-0-10_oven_10_n04111531_17781.png
barlow_twins,1,847,NaN,oven,car,32-0-10,0847_eid_dnn_32-0-10_car_10_n02814533_6498.png
barlow_twins,1,848,NaN,bottle,boat,8-0-10,0848_eid_dnn_8-0-10_boat_10_n03344393_5322.png
barlow_twins,1,849,NaN,oven,knife,2-0-10,0849_eid_dnn_2-0-10_knife_10_n03041632_54191.png
barlow_twins,1,850,NaN,oven,bottle,64-0-10,0850_eid_dnn_64-0-10_bottle_10_n03937543_2790.png
barlow_twins,1,851,NaN,oven,boat,64-0-10,0851_eid_dnn_64-0-10_boat_10_n04273569_5672.png
barlow_twins,1,852,NaN,airplane,elephant,4-0-10,0852_eid_dnn_4-0-10_elephant_10_n02504458_6830.png
barlow_twins,1,853,NaN,oven,bird,1-0-10,0853_eid_dnn_1-0-10_bird_10_n01824575_10046.png
barlow_twins,1,854,NaN,clock,keyboard,16-0-10,0854_eid_dnn_16-0-10_keyboard_10_n03085013_6643.png
barlow_twins,1,855,NaN,oven,bicycle,64-0-10,0855_eid_dnn_64-0-10_bicycle_10_n03792782_59.png
barlow_twins,1,856,NaN,bottle,chair,8-0-10,0856_eid_dnn_8-0-10_chair_10_n04099969_4816.png
barlow_twins,1,857,NaN,elephant,car,2-0-10,0857_eid_dnn_2-0-10_car_10_n02814533_20712.png
barlow_twins,1,858,NaN,oven,bottle,4-0-10,0858_eid_dnn_4-0-10_bottle_10_n04560804_15122.png
barlow_twins,1,859,NaN,keyboard,clock,4-0-10,0859_eid_dnn_4-0-10_clock_10_n04548280_11681.png
barlow_twins,1,860,NaN,elephant,elephant,1-0-10,0860_eid_dnn_1-0-10_elephant_10_n02504013_6287.png
barlow_twins,1,861,NaN,keyboard,boat,2-0-10,0861_eid_dnn_2-0-10_boat_10_n04273569_14363.png
barlow_twins,1,862,NaN,truck,elephant,4-0-10,0862_eid_dnn_4-0-10_elephant_10_n02504013_2033.png
barlow_twins,1,863,NaN,oven,elephant,4-0-10,0863_eid_dnn_4-0-10_elephant_10_n02504013_6897.png
barlow_twins,1,864,NaN,airplane,knife,128-0-10,0864_eid_dnn_128-0-10_knife_10_n03041632_35260.png
barlow_twins,1,865,NaN,oven,bottle,1-0-10,0865_eid_dnn_1-0-10_bottle_10_n03983396_12916.png
barlow_twins,1,866,NaN,oven,bicycle,1-0-10,0866_eid_dnn_1-0-10_bicycle_10_n02835271_1530.png
barlow_twins,1,867,NaN,knife,car,2-0-10,0867_eid_dnn_2-0-10_car_10_n02814533_41478.png
barlow_twins,1,868,NaN,oven,keyboard,64-0-10,0868_eid_dnn_64-0-10_keyboard_10_n04505470_3929.png
barlow_twins,1,869,NaN,keyboard,chair,16-0-10,0869_eid_dnn_16-0-10_chair_10_n02791124_6505.png
barlow_twins,1,870,NaN,car,clock,16-0-10,0870_eid_dnn_16-0-10_clock_10_n04548280_1438.png
barlow_twins,1,871,NaN,knife,knife,2-0-10,0871_eid_dnn_2-0-10_knife_10_n03041632_22480.png
barlow_twins,1,872,NaN,keyboard,truck,32-0-10,0872_eid_dnn_32-0-10_truck_10_n03417042_16000.png
barlow_twins,1,873,NaN,keyboard,chair,16-0-10,0873_eid_dnn_16-0-10_chair_10_n04099969_16270.png
barlow_twins,1,874,NaN,elephant,knife,16-0-10,0874_eid_dnn_16-0-10_knife_10_n03041632_80829.png
barlow_twins,1,875,NaN,oven,oven,4-0-10,0875_eid_dnn_4-0-10_oven_10_n04111531_1128.png
barlow_twins,1,876,NaN,oven,cat,2-0-10,0876_eid_dnn_2-0-10_cat_10_n02123394_830.png
barlow_twins,1,877,NaN,knife,boat,1-0-10,0877_eid_dnn_1-0-10_boat_10_n03344393_1017.png
barlow_twins,1,878,NaN,car,bear,8-0-10,0878_eid_dnn_8-0-10_bear_10_n02134418_5120.png
barlow_twins,1,879,NaN,airplane,truck,1-0-10,0879_eid_dnn_1-0-10_truck_10_n04467665_9589.png
barlow_twins,1,880,NaN,elephant,boat,32-0-10,0880_eid_dnn_32-0-10_boat_10_n04273569_9821.png
barlow_twins,1,881,NaN,bottle,clock,128-0-10,0881_eid_dnn_128-0-10_clock_10_n04548280_4346.png
barlow_twins,1,882,NaN,keyboard,bird,16-0-10,0882_eid_dnn_16-0-10_bird_10_n01855032_8095.png
barlow_twins,1,883,NaN,oven,knife,32-0-10,0883_eid_dnn_32-0-10_knife_10_n03041632_87380.png
barlow_twins,1,884,NaN,oven,bear,128-0-10,0884_eid_dnn_128-0-10_bear_10_n02134084_16227.png
barlow_twins,1,885,NaN,airplane,cat,8-0-10,0885_eid_dnn_8-0-10_cat_10_n02123045_8751.png
barlow_twins,1,886,NaN,elephant,chair,64-0-10,0886_eid_dnn_64-0-10_chair_10_n04429376_36848.png
barlow_twins,1,887,NaN,elephant,bottle,2-0-10,0887_eid_dnn_2-0-10_bottle_10_n04579145_2346.png
barlow_twins,1,888,NaN,elephant,truck,4-0-10,0888_eid_dnn_4-0-10_truck_10_n03796401_1791.png
barlow_twins,1,889,NaN,knife,bear,4-0-10,0889_eid_dnn_4-0-10_bear_10_n02134084_7079.png
barlow_twins,1,890,NaN,airplane,cat,128-0-10,0890_eid_dnn_128-0-10_cat_10_n02125311_2981.png
barlow_twins,1,891,NaN,keyboard,airplane,32-0-10,0891_eid_dnn_32-0-10_airplane_10_n02690373_18845.png
barlow_twins,1,892,NaN,oven,oven,128-0-10,0892_eid_dnn_128-0-10_oven_10_n04111531_17045.png
barlow_twins,1,893,NaN,keyboard,car,16-0-10,0893_eid_dnn_16-0-10_car_10_n04285008_8959.png
barlow_twins,1,894,NaN,airplane,keyboard,1-0-10,0894_eid_dnn_1-0-10_keyboard_10_n03085013_24284.png
barlow_twins,1,895,NaN,keyboard,airplane,2-0-10,0895_eid_dnn_2-0-10_airplane_10_n02690373_2316.png
barlow_twins,1,896,NaN,oven,oven,64-0-10,0896_eid_dnn_64-0-10_oven_10_n04111531_9210.png
barlow_twins,1,897,NaN,oven,car,2-0-10,0897_eid_dnn_2-0-10_car_10_n03100240_23229.png
barlow_twins,1,898,NaN,oven,keyboard,1-0-10,0898_eid_dnn_1-0-10_keyboard_10_n04505470_3314.png
barlow_twins,1,899,NaN,oven,bottle,128-0-10,0899_eid_dnn_128-0-10_bottle_10_n02823428_7788.png
barlow_twins,1,900,NaN,knife,bear,2-0-10,0900_eid_dnn_2-0-10_bear_10_n02134418_18850.png
barlow_twins,1,901,NaN,keyboard,knife,16-0-10,0901_eid_dnn_16-0-10_knife_10_n03041632_992.png
barlow_twins,1,902,NaN,elephant,chair,8-0-10,0902_eid_dnn_8-0-10_chair_10_n04429376_17013.png
barlow_twins,1,903,NaN,oven,cat,32-0-10,0903_eid_dnn_32-0-10_cat_10_n02123394_1879.png
barlow_twins,1,904,NaN,car,keyboard,8-0-10,0904_eid_dnn_8-0-10_keyboard_10_n03085013_24166.png
barlow_twins,1,905,NaN,keyboard,car,8-0-10,0905_eid_dnn_8-0-10_car_10_n03100240_1140.png
barlow_twins,1,906,NaN,oven,boat,32-0-10,0906_eid_dnn_32-0-10_boat_10_n04612504_125.png
barlow_twins,1,907,NaN,airplane,boat,128-0-10,0907_eid_dnn_128-0-10_boat_10_n03344393_1573.png
barlow_twins,1,908,NaN,airplane,chair,128-0-10,0908_eid_dnn_128-0-10_chair_10_n02791124_1482.png
barlow_twins,1,909,NaN,oven,bird,2-0-10,0909_eid_dnn_2-0-10_bird_10_n01592084_3147.png
barlow_twins,1,910,NaN,elephant,bicycle,8-0-10,0910_eid_dnn_8-0-10_bicycle_10_n03792782_14293.png
barlow_twins,1,911,NaN,oven,truck,4-0-10,0911_eid_dnn_4-0-10_truck_10_n03417042_26102.png
barlow_twins,1,912,NaN,oven,chair,2-0-10,0912_eid_dnn_2-0-10_chair_10_n03376595_6973.png
barlow_twins,1,913,NaN,oven,cat,64-0-10,0913_eid_dnn_64-0-10_cat_10_n02123394_292.png
barlow_twins,1,914,NaN,knife,airplane,1-0-10,0914_eid_dnn_1-0-10_airplane_10_n02690373_4136.png
barlow_twins,1,915,NaN,oven,bird,2-0-10,0915_eid_dnn_2-0-10_bird_10_n01795545_15255.png
barlow_twins,1,916,NaN,elephant,chair,1-0-10,0916_eid_dnn_1-0-10_chair_10_n04099969_12537.png
barlow_twins,1,917,NaN,elephant,bear,32-0-10,0917_eid_dnn_32-0-10_bear_10_n02132136_13078.png
barlow_twins,1,918,NaN,bottle,bear,32-0-10,0918_eid_dnn_32-0-10_bear_10_n02132136_1738.png
barlow_twins,1,919,NaN,elephant,airplane,2-0-10,0919_eid_dnn_2-0-10_airplane_10_n02690373_1706.png
barlow_twins,1,920,NaN,bottle,bicycle,64-0-10,0920_eid_dnn_64-0-10_bicycle_10_n02835271_7051.png
barlow_twins,1,921,NaN,car,oven,8-0-10,0921_eid_dnn_8-0-10_oven_10_n04111531_1150.png
barlow_twins,1,922,NaN,bottle,bear,64-0-10,0922_eid_dnn_64-0-10_bear_10_n02132136_14832.png
barlow_twins,1,923,NaN,keyboard,cat,2-0-10,0923_eid_dnn_2-0-10_cat_10_n02123159_2684.png
barlow_twins,1,924,NaN,car,keyboard,8-0-10,0924_eid_dnn_8-0-10_keyboard_10_n03085013_24217.png
barlow_twins,1,925,NaN,keyboard,airplane,1-0-10,0925_eid_dnn_1-0-10_airplane_10_n02690373_6739.png
barlow_twins,1,926,NaN,bicycle,oven,128-0-10,0926_eid_dnn_128-0-10_oven_10_n04111531_6622.png
barlow_twins,1,927,NaN,bottle,bird,8-0-10,0927_eid_dnn_8-0-10_bird_10_n01514859_7974.png
barlow_twins,1,928,NaN,airplane,clock,128-0-10,0928_eid_dnn_128-0-10_clock_10_n04548280_23690.png
barlow_twins,1,929,NaN,knife,truck,4-0-10,0929_eid_dnn_4-0-10_truck_10_n03417042_14574.png
barlow_twins,1,930,NaN,knife,bird,4-0-10,0930_eid_dnn_4-0-10_bird_10_n01592084_7870.png
barlow_twins,1,931,NaN,oven,bird,64-0-10,0931_eid_dnn_64-0-10_bird_10_n01843383_6887.png
barlow_twins,1,932,NaN,oven,airplane,64-0-10,0932_eid_dnn_64-0-10_airplane_10_n02690373_8543.png
barlow_twins,1,933,NaN,oven,chair,128-0-10,0933_eid_dnn_128-0-10_chair_10_n03376595_8409.png
barlow_twins,1,934,NaN,car,car,8-0-10,0934_eid_dnn_8-0-10_car_10_n02814533_68668.png
barlow_twins,1,935,NaN,airplane,bear,128-0-10,0935_eid_dnn_128-0-10_bear_10_n02134084_6286.png
barlow_twins,1,936,NaN,car,bicycle,32-0-10,0936_eid_dnn_32-0-10_bicycle_10_n02835271_9482.png
barlow_twins,1,937,NaN,oven,keyboard,64-0-10,0937_eid_dnn_64-0-10_keyboard_10_n03085013_20322.png
barlow_twins,1,938,NaN,oven,bird,128-0-10,0938_eid_dnn_128-0-10_bird_10_n01843065_958.png
barlow_twins,1,939,NaN,airplane,boat,128-0-10,0939_eid_dnn_128-0-10_boat_10_n04612504_1889.png
barlow_twins,1,940,NaN,keyboard,car,32-0-10,0940_eid_dnn_32-0-10_car_10_n04285008_10824.png
barlow_twins,1,941,NaN,oven,keyboard,32-0-10,0941_eid_dnn_32-0-10_keyboard_10_n04505470_10596.png
barlow_twins,1,942,NaN,oven,chair,64-0-10,0942_eid_dnn_64-0-10_chair_10_n04429376_17336.png
barlow_twins,1,943,NaN,airplane,truck,128-0-10,0943_eid_dnn_128-0-10_truck_10_n03796401_4898.png
barlow_twins,1,944,NaN,truck,bear,1-0-10,0944_eid_dnn_1-0-10_bear_10_n02132136_13556.png
barlow_twins,1,945,NaN,keyboard,bird,32-0-10,0945_eid_dnn_32-0-10_bird_10_n02051845_34393.png
barlow_twins,1,946,NaN,clock,dog,1-0-10,0946_eid_dnn_1-0-10_dog_10_n02098286_4560.png
barlow_twins,1,947,NaN,car,bird,16-0-10,0947_eid_dnn_16-0-10_bird_10_n02007558_15130.png
barlow_twins,1,948,NaN,oven,elephant,32-0-10,0948_eid_dnn_32-0-10_elephant_10_n02504458_10344.png
barlow_twins,1,949,NaN,truck,clock,128-0-10,0949_eid_dnn_128-0-10_clock_10_n03196217_2919.png
barlow_twins,1,950,NaN,oven,bear,32-0-10,0950_eid_dnn_32-0-10_bear_10_n02132136_4203.png
barlow_twins,1,951,NaN,oven,bird,32-0-10,0951_eid_dnn_32-0-10_bird_10_n01582220_10508.png
barlow_twins,1,952,NaN,car,bicycle,1-0-10,0952_eid_dnn_1-0-10_bicycle_10_n03792782_9692.png
barlow_twins,1,953,NaN,knife,clock,8-0-10,0953_eid_dnn_8-0-10_clock_10_n03196217_5433.png
barlow_twins,1,954,NaN,oven,elephant,64-0-10,0954_eid_dnn_64-0-10_elephant_10_n02504013_6703.png
barlow_twins,1,955,NaN,knife,dog,1-0-10,0955_eid_dnn_1-0-10_dog_10_n02093991_8648.png
barlow_twins,1,956,NaN,keyboard,bird,4-0-10,0956_eid_dnn_4-0-10_bird_10_n02033041_7196.png
barlow_twins,1,957,NaN,keyboard,truck,2-0-10,0957_eid_dnn_2-0-10_truck_10_n03796401_26820.png
barlow_twins,1,958,NaN,elephant,oven,2-0-10,0958_eid_dnn_2-0-10_oven_10_n04111531_12820.png
barlow_twins,1,959,NaN,airplane,truck,1-0-10,0959_eid_dnn_1-0-10_truck_10_n03417042_3389.png
barlow_twins,1,960,NaN,elephant,bicycle,4-0-10,0960_eid_dnn_4-0-10_bicycle_10_n03792782_10366.png
barlow_twins,1,961,NaN,oven,bear,8-0-10,0961_eid_dnn_8-0-10_bear_10_n02134084_2598.png
barlow_twins,1,962,NaN,oven,keyboard,1-0-10,0962_eid_dnn_1-0-10_keyboard_10_n04505470_10697.png
barlow_twins,1,963,NaN,oven,truck,64-0-10,0963_eid_dnn_64-0-10_truck_10_n04467665_43222.png
barlow_twins,1,964,NaN,keyboard,car,8-0-10,0964_eid_dnn_8-0-10_car_10_n04285008_2232.png
barlow_twins,1,965,NaN,keyboard,bicycle,2-0-10,0965_eid_dnn_2-0-10_bicycle_10_n03792782_3388.png
barlow_twins,1,966,NaN,keyboard,clock,16-0-10,0966_eid_dnn_16-0-10_clock_10_n03196217_7816.png
barlow_twins,1,967,NaN,airplane,bottle,128-0-10,0967_eid_dnn_128-0-10_bottle_10_n02823428_3.png
barlow_twins,1,968,NaN,airplane,dog,128-0-10,0968_eid_dnn_128-0-10_dog_10_n02097130_3615.png
barlow_twins,1,969,NaN,bottle,elephant,64-0-10,0969_eid_dnn_64-0-10_elephant_10_n02504013_6423.png
barlow_twins,1,970,NaN,bottle,knife,16-0-10,0970_eid_dnn_16-0-10_knife_10_n03041632_38610.png
barlow_twins,1,971,NaN,clock,boat,16-0-10,0971_eid_dnn_16-0-10_boat_10_n03662601_17273.png
barlow_twins,1,972,NaN,oven,car,128-0-10,0972_eid_dnn_128-0-10_car_10_n04285008_13702.png
barlow_twins,1,973,NaN,keyboard,clock,1-0-10,0973_eid_dnn_1-0-10_clock_10_n04548280_4989.png
barlow_twins,1,974,NaN,car,bicycle,8-0-10,0974_eid_dnn_8-0-10_bicycle_10_n03792782_46560.png
barlow_twins,1,975,NaN,keyboard,keyboard,16-0-10,0975_eid_dnn_16-0-10_keyboard_10_n04505470_1833.png
barlow_twins,1,976,NaN,car,truck,16-0-10,0976_eid_dnn_16-0-10_truck_10_n03417042_12328.png
barlow_twins,1,977,NaN,oven,oven,128-0-10,0977_eid_dnn_128-0-10_oven_10_n04111531_12450.png
barlow_twins,1,978,NaN,airplane,airplane,32-0-10,0978_eid_dnn_32-0-10_airplane_10_n02690373_18506.png
barlow_twins,1,979,NaN,keyboard,chair,16-0-10,0979_eid_dnn_16-0-10_chair_10_n03376595_262.png
barlow_twins,1,980,NaN,oven,cat,128-0-10,0980_eid_dnn_128-0-10_cat_10_n02123159_5716.png
barlow_twins,1,981,NaN,clock,bird,1-0-10,0981_eid_dnn_1-0-10_bird_10_n02009912_2313.png
barlow_twins,1,982,NaN,keyboard,chair,8-0-10,0982_eid_dnn_8-0-10_chair_10_n04099969_3404.png
barlow_twins,1,983,NaN,airplane,boat,1-0-10,0983_eid_dnn_1-0-10_boat_10_n02951358_9323.png
barlow_twins,1,984,NaN,keyboard,bicycle,4-0-10,0984_eid_dnn_4-0-10_bicycle_10_n03792782_2960.png
barlow_twins,1,985,NaN,knife,clock,4-0-10,0985_eid_dnn_4-0-10_clock_10_n04548280_5991.png
barlow_twins,1,986,NaN,airplane,chair,128-0-10,0986_eid_dnn_128-0-10_chair_10_n02791124_3916.png
barlow_twins,1,987,NaN,bottle,keyboard,32-0-10,0987_eid_dnn_32-0-10_keyboard_10_n03085013_23566.png
barlow_twins,1,988,NaN,elephant,knife,8-0-10,0988_eid_dnn_8-0-10_knife_10_n03041632_38540.png
barlow_twins,1,989,NaN,airplane,airplane,64-0-10,0989_eid_dnn_64-0-10_airplane_10_n02690373_15472.png
barlow_twins,1,990,NaN,keyboard,bottle,4-0-10,0990_eid_dnn_4-0-10_bottle_10_n02823428_2754.png
barlow_twins,1,991,NaN,oven,keyboard,64-0-10,0991_eid_dnn_64-0-10_keyboard_10_n04505470_3881.png
barlow_twins,1,992,NaN,knife,truck,8-0-10,0992_eid_dnn_8-0-10_truck_10_n03417042_6517.png
barlow_twins,1,993,NaN,airplane,keyboard,128-0-10,0993_eid_dnn_128-0-10_keyboard_10_n04505470_6.png
barlow_twins,1,994,NaN,oven,keyboard,64-0-10,0994_eid_dnn_64-0-10_keyboard_10_n04505470_9113.png
barlow_twins,1,995,NaN,knife,bear,8-0-10,0995_eid_dnn_8-0-10_bear_10_n02134084_14992.png
barlow_twins,1,996,NaN,bottle,elephant,64-0-10,0996_eid_dnn_64-0-10_elephant_10_n02504458_12777.png
barlow_twins,1,997,NaN,oven,chair,2-0-10,0997_eid_dnn_2-0-10_chair_10_n02791124_2470.png
barlow_twins,1,998,NaN,bear,airplane,1-0-10,0998_eid_dnn_1-0-10_airplane_10_n02690373_3119.png
barlow_twins,1,999,NaN,oven,clock,1-0-10,0999_eid_dnn_1-0-10_clock_10_n04548280_4560.png
barlow_twins,1,1000,NaN,airplane,bicycle,64-0-10,1000_eid_dnn_64-0-10_bicycle_10_n03792782_14047.png
barlow_twins,1,1001,NaN,oven,bottle,32-0-10,1001_eid_dnn_32-0-10_bottle_10_n03983396_10229.png
barlow_twins,1,1002,NaN,truck,keyboard,4-0-10,1002_eid_dnn_4-0-10_keyboard_10_n03085013_14764.png
barlow_twins,1,1003,NaN,keyboard,truck,32-0-10,1003_eid_dnn_32-0-10_truck_10_n03417042_6033.png
barlow_twins,1,1004,NaN,keyboard,bear,2-0-10,1004_eid_dnn_2-0-10_bear_10_n02134418_2278.png
barlow_twins,1,1005,NaN,airplane,clock,16-0-10,1005_eid_dnn_16-0-10_clock_10_n04548280_7050.png
barlow_twins,1,1006,NaN,knife,dog,1-0-10,1006_eid_dnn_1-0-10_dog_10_n02104365_179.png
barlow_twins,1,1007,NaN,elephant,elephant,8-0-10,1007_eid_dnn_8-0-10_elephant_10_n02504458_10264.png
barlow_twins,1,1008,NaN,oven,bicycle,128-0-10,1008_eid_dnn_128-0-10_bicycle_10_n02835271_7476.png
barlow_twins,1,1009,NaN,oven,bicycle,32-0-10,1009_eid_dnn_32-0-10_bicycle_10_n03792782_30246.png
barlow_twins,1,1010,NaN,keyboard,car,4-0-10,1010_eid_dnn_4-0-10_car_10_n04285008_13054.png
barlow_twins,1,1011,NaN,keyboard,car,8-0-10,1011_eid_dnn_8-0-10_car_10_n02814533_37736.png
barlow_twins,1,1012,NaN,elephant,elephant,2-0-10,1012_eid_dnn_2-0-10_elephant_10_n02504458_1628.png
barlow_twins,1,1013,NaN,keyboard,knife,4-0-10,1013_eid_dnn_4-0-10_knife_10_n03041632_29580.png
barlow_twins,1,1014,NaN,bottle,cat,32-0-10,1014_eid_dnn_32-0-10_cat_10_n02123159_799.png
barlow_twins,1,1015,NaN,bottle,chair,4-0-10,1015_eid_dnn_4-0-10_chair_10_n04429376_9517.png
barlow_twins,1,1016,NaN,clock,bird,8-0-10,1016_eid_dnn_8-0-10_bird_10_n01828970_7329.png
barlow_twins,1,1017,NaN,oven,clock,2-0-10,1017_eid_dnn_2-0-10_clock_10_n04548280_299.png
barlow_twins,1,1018,NaN,clock,chair,16-0-10,1018_eid_dnn_16-0-10_chair_10_n02791124_3109.png
barlow_twins,1,1019,NaN,bear,bird,16-0-10,1019_eid_dnn_16-0-10_bird_10_n01795545_13849.png
barlow_twins,1,1020,NaN,car,car,8-0-10,1020_eid_dnn_8-0-10_car_10_n03100240_2619.png
barlow_twins,1,1021,NaN,elephant,truck,4-0-10,1021_eid_dnn_4-0-10_truck_10_n03796401_2893.png
barlow_twins,1,1022,NaN,airplane,bottle,1-0-10,1022_eid_dnn_1-0-10_bottle_10_n04560804_433.png
barlow_twins,1,1023,NaN,elephant,airplane,4-0-10,1023_eid_dnn_4-0-10_airplane_10_n02690373_9175.png
barlow_twins,1,1024,NaN,oven,airplane,32-0-10,1024_eid_dnn_32-0-10_airplane_10_n02690373_6491.png
barlow_twins,1,1025,NaN,oven,clock,64-0-10,1025_eid_dnn_64-0-10_clock_10_n02708093_6816.png
barlow_twins,1,1026,NaN,oven,oven,1-0-10,1026_eid_dnn_1-0-10_oven_10_n04111531_10749.png
barlow_twins,1,1027,NaN,oven,chair,128-0-10,1027_eid_dnn_128-0-10_chair_10_n03376595_8196.png
barlow_twins,1,1028,NaN,airplane,boat,2-0-10,1028_eid_dnn_2-0-10_boat_10_n04273569_6941.png
barlow_twins,1,1029,NaN,bottle,keyboard,64-0-10,1029_eid_dnn_64-0-10_keyboard_10_n04505470_4660.png
barlow_twins,1,1030,NaN,bottle,car,1-0-10,1030_eid_dnn_1-0-10_car_10_n04285008_3015.png
barlow_twins,1,1031,NaN,airplane,clock,128-0-10,1031_eid_dnn_128-0-10_clock_10_n04548280_5466.png
barlow_twins,1,1032,NaN,bottle,boat,1-0-10,1032_eid_dnn_1-0-10_boat_10_n04273569_29113.png
barlow_twins,1,1033,NaN,airplane,bird,128-0-10,1033_eid_dnn_128-0-10_bird_10_n01855672_8041.png
barlow_twins,1,1034,NaN,airplane,chair,1-0-10,1034_eid_dnn_1-0-10_chair_10_n02791124_13477.png
barlow_twins,1,1035,NaN,keyboard,bottle,2-0-10,1035_eid_dnn_2-0-10_bottle_10_n04557648_21449.png
barlow_twins,1,1036,NaN,oven,dog,128-0-10,1036_eid_dnn_128-0-10_dog_10_n02106030_11782.png
barlow_twins,1,1037,NaN,bottle,truck,32-0-10,1037_eid_dnn_32-0-10_truck_10_n03796401_10784.png
barlow_twins,1,1038,NaN,bear,dog,1-0-10,1038_eid_dnn_1-0-10_dog_10_n02097209_5571.png
barlow_twins,1,1039,NaN,clock,cat,16-0-10,1039_eid_dnn_16-0-10_cat_10_n02124075_6716.png
barlow_twins,1,1040,NaN,oven,elephant,32-0-10,1040_eid_dnn_32-0-10_elephant_10_n02504458_62.png
barlow_twins,1,1041,NaN,bottle,bear,16-0-10,1041_eid_dnn_16-0-10_bear_10_n02133161_25789.png
barlow_twins,1,1042,NaN,elephant,dog,8-0-10,1042_eid_dnn_8-0-10_dog_10_n02113712_9172.png
barlow_twins,1,1043,NaN,keyboard,cat,1-0-10,1043_eid_dnn_1-0-10_cat_10_n02124075_12622.png
barlow_twins,1,1044,NaN,airplane,keyboard,1-0-10,1044_eid_dnn_1-0-10_keyboard_10_n04505470_5561.png
barlow_twins,1,1045,NaN,oven,oven,2-0-10,1045_eid_dnn_2-0-10_oven_10_n04111531_1815.png
barlow_twins,1,1046,NaN,elephant,dog,4-0-10,1046_eid_dnn_4-0-10_dog_10_n02102318_15295.png
barlow_twins,1,1047,NaN,bottle,bicycle,32-0-10,1047_eid_dnn_32-0-10_bicycle_10_n02835271_15524.png
barlow_twins,1,1048,NaN,keyboard,elephant,8-0-10,1048_eid_dnn_8-0-10_elephant_10_n02504458_2841.png
barlow_twins,1,1049,NaN,knife,knife,2-0-10,1049_eid_dnn_2-0-10_knife_10_n03041632_84240.png
barlow_twins,1,1050,NaN,knife,bicycle,2-0-10,1050_eid_dnn_2-0-10_bicycle_10_n02835271_6266.png
barlow_twins,1,1051,NaN,oven,oven,16-0-10,1051_eid_dnn_16-0-10_oven_10_n04111531_766.png
barlow_twins,1,1052,NaN,oven,oven,64-0-10,1052_eid_dnn_64-0-10_oven_10_n04111531_21855.png
barlow_twins,1,1053,NaN,airplane,elephant,128-0-10,1053_eid_dnn_128-0-10_elephant_10_n02504013_6903.png
barlow_twins,1,1054,NaN,oven,chair,32-0-10,1054_eid_dnn_32-0-10_chair_10_n02791124_624.png
barlow_twins,1,1055,NaN,clock,oven,8-0-10,1055_eid_dnn_8-0-10_oven_10_n04111531_13296.png
barlow_twins,1,1056,NaN,knife,keyboard,8-0-10,1056_eid_dnn_8-0-10_keyboard_10_n03085013_25066.png
barlow_twins,1,1057,NaN,car,airplane,16-0-10,1057_eid_dnn_16-0-10_airplane_10_n02690373_17044.png
barlow_twins,1,1058,NaN,airplane,clock,64-0-10,1058_eid_dnn_64-0-10_clock_10_n02708093_2943.png
barlow_twins,1,1059,NaN,elephant,bird,64-0-10,1059_eid_dnn_64-0-10_bird_10_n01582220_1814.png
barlow_twins,1,1060,NaN,oven,bear,4-0-10,1060_eid_dnn_4-0-10_bear_10_n02133161_9098.png
barlow_twins,1,1061,NaN,oven,bear,1-0-10,1061_eid_dnn_1-0-10_bear_10_n02134084_887.png
barlow_twins,1,1062,NaN,keyboard,knife,8-0-10,1062_eid_dnn_8-0-10_knife_10_n03041632_26933.png
barlow_twins,1,1063,NaN,keyboard,knife,4-0-10,1063_eid_dnn_4-0-10_knife_10_n03041632_39840.png
barlow_twins,1,1064,NaN,elephant,cat,8-0-10,1064_eid_dnn_8-0-10_cat_10_n02125311_10230.png
barlow_twins,1,1065,NaN,bottle,boat,64-0-10,1065_eid_dnn_64-0-10_boat_10_n04273569_14454.png
barlow_twins,1,1066,NaN,airplane,bird,64-0-10,1066_eid_dnn_64-0-10_bird_10_n02025239_6209.png
