subj,session,trial,rt,object_response,category,condition,imagename
dino_v8,1,1,NaN,dog,oven,16-0-10,0001_eid_dnn_16-0-10_oven_10_n04111531_13542.png
dino_v8,1,2,NaN,car,car,4-0-10,0002_eid_dnn_4-0-10_car_10_n03100240_5570.png
dino_v8,1,3,NaN,cat,bird,8-0-10,0003_eid_dnn_8-0-10_bird_10_n01820546_4847.png
dino_v8,1,4,NaN,dog,bear,32-0-10,0004_eid_dnn_32-0-10_bear_10_n02133161_15561.png
dino_v8,1,5,NaN,dog,bird,64-0-10,0005_eid_dnn_64-0-10_bird_10_n01531178_9584.png
dino_v8,1,6,NaN,bear,bicycle,8-0-10,0006_eid_dnn_8-0-10_bicycle_10_n02835271_18846.png
dino_v8,1,7,NaN,bottle,oven,4-0-10,0007_eid_dnn_4-0-10_oven_10_n04111531_73.png
dino_v8,1,8,NaN,clock,clock,2-0-10,0008_eid_dnn_2-0-10_clock_10_n04548280_6159.png
dino_v8,1,9,NaN,dog,chair,32-0-10,0009_eid_dnn_32-0-10_chair_10_n03376595_9395.png
dino_v8,1,10,NaN,dog,bicycle,64-0-10,0010_eid_dnn_64-0-10_bicycle_10_n02835271_1918.png
dino_v8,1,11,NaN,cat,bicycle,128-0-10,0011_eid_dnn_128-0-10_bicycle_10_n02835271_42320.png
dino_v8,1,12,NaN,elephant,elephant,1-0-10,0012_eid_dnn_1-0-10_elephant_10_n02504458_3628.png
dino_v8,1,13,NaN,clock,knife,64-0-10,0013_eid_dnn_64-0-10_knife_10_n03041632_86554.png
dino_v8,1,14,NaN,cat,cat,8-0-10,0014_eid_dnn_8-0-10_cat_10_n02123394_1726.png
dino_v8,1,15,NaN,dog,cat,32-0-10,0015_eid_dnn_32-0-10_cat_10_n02123597_6721.png
dino_v8,1,16,NaN,oven,oven,2-0-10,0016_eid_dnn_2-0-10_oven_10_n04111531_21869.png
dino_v8,1,17,NaN,bear,bear,4-0-10,0017_eid_dnn_4-0-10_bear_10_n02134084_2949.png
dino_v8,1,18,NaN,keyboard,truck,8-0-10,0018_eid_dnn_8-0-10_truck_10_n03417042_18743.png
dino_v8,1,19,NaN,airplane,bird,16-0-10,0019_eid_dnn_16-0-10_bird_10_n01616318_4246.png
dino_v8,1,20,NaN,dog,bicycle,8-0-10,0020_eid_dnn_8-0-10_bicycle_10_n03792782_66771.png
dino_v8,1,21,NaN,keyboard,keyboard,2-0-10,0021_eid_dnn_2-0-10_keyboard_10_n04505470_3531.png
dino_v8,1,22,NaN,clock,clock,8-0-10,0022_eid_dnn_8-0-10_clock_10_n04548280_6463.png
dino_v8,1,23,NaN,cat,keyboard,16-0-10,0023_eid_dnn_16-0-10_keyboard_10_n04505470_4974.png
dino_v8,1,24,NaN,bottle,chair,4-0-10,0024_eid_dnn_4-0-10_chair_10_n03376595_360.png
dino_v8,1,25,NaN,dog,dog,16-0-10,0025_eid_dnn_16-0-10_dog_10_n02097130_2752.png
dino_v8,1,26,NaN,bicycle,bicycle,2-0-10,0026_eid_dnn_2-0-10_bicycle_10_n02835271_3406.png
dino_v8,1,27,NaN,elephant,bottle,16-0-10,0027_eid_dnn_16-0-10_bottle_10_n04560804_11732.png
dino_v8,1,28,NaN,dog,bottle,32-0-10,0028_eid_dnn_32-0-10_bottle_10_n04591713_13589.png
dino_v8,1,29,NaN,cat,cat,2-0-10,0029_eid_dnn_2-0-10_cat_10_n02123045_4009.png
dino_v8,1,30,NaN,chair,chair,8-0-10,0030_eid_dnn_8-0-10_chair_10_n02791124_1704.png
dino_v8,1,31,NaN,dog,bicycle,128-0-10,0031_eid_dnn_128-0-10_bicycle_10_n03792782_28395.png
dino_v8,1,32,NaN,dog,truck,16-0-10,0032_eid_dnn_16-0-10_truck_10_n03417042_4288.png
dino_v8,1,33,NaN,keyboard,keyboard,1-0-10,0033_eid_dnn_1-0-10_keyboard_10_n04505470_3371.png
dino_v8,1,34,NaN,cat,cat,1-0-10,0034_eid_dnn_1-0-10_cat_10_n02124075_13436.png
dino_v8,1,35,NaN,dog,dog,32-0-10,0035_eid_dnn_32-0-10_dog_10_n02097209_8270.png
dino_v8,1,36,NaN,dog,clock,128-0-10,0036_eid_dnn_128-0-10_clock_10_n04548280_7795.png
dino_v8,1,37,NaN,dog,car,32-0-10,0037_eid_dnn_32-0-10_car_10_n03100240_21737.png
dino_v8,1,38,NaN,cat,clock,128-0-10,0038_eid_dnn_128-0-10_clock_10_n02708093_1862.png
dino_v8,1,39,NaN,dog,bicycle,64-0-10,0039_eid_dnn_64-0-10_bicycle_10_n03792782_9412.png
dino_v8,1,40,NaN,bird,bear,32-0-10,0040_eid_dnn_32-0-10_bear_10_n02134418_163.png
dino_v8,1,41,NaN,bird,keyboard,16-0-10,0041_eid_dnn_16-0-10_keyboard_10_n03085013_25675.png
dino_v8,1,42,NaN,truck,truck,2-0-10,0042_eid_dnn_2-0-10_truck_10_n03417042_1716.png
dino_v8,1,43,NaN,cat,keyboard,128-0-10,0043_eid_dnn_128-0-10_keyboard_10_n03085013_18854.png
dino_v8,1,44,NaN,clock,bottle,32-0-10,0044_eid_dnn_32-0-10_bottle_10_n04591713_4865.png
dino_v8,1,45,NaN,cat,bicycle,32-0-10,0045_eid_dnn_32-0-10_bicycle_10_n03792782_693.png
dino_v8,1,46,NaN,dog,bottle,1-0-10,0046_eid_dnn_1-0-10_bottle_10_n04557648_264.png
dino_v8,1,47,NaN,knife,knife,2-0-10,0047_eid_dnn_2-0-10_knife_10_n03041632_25512.png
dino_v8,1,48,NaN,dog,boat,16-0-10,0048_eid_dnn_16-0-10_boat_10_n03344393_2381.png
dino_v8,1,49,NaN,cat,dog,128-0-10,0049_eid_dnn_128-0-10_dog_10_n02110627_17670.png
dino_v8,1,50,NaN,keyboard,bear,64-0-10,0050_eid_dnn_64-0-10_bear_10_n02133161_15981.png
dino_v8,1,51,NaN,elephant,elephant,16-0-10,0051_eid_dnn_16-0-10_elephant_10_n02504458_3570.png
dino_v8,1,52,NaN,truck,truck,4-0-10,0052_eid_dnn_4-0-10_truck_10_n03417042_6241.png
dino_v8,1,53,NaN,bear,bird,8-0-10,0053_eid_dnn_8-0-10_bird_10_n02025239_17670.png
dino_v8,1,54,NaN,dog,dog,16-0-10,0054_eid_dnn_16-0-10_dog_10_n02106030_19249.png
dino_v8,1,55,NaN,cat,keyboard,32-0-10,0055_eid_dnn_32-0-10_keyboard_10_n04505470_2326.png
dino_v8,1,56,NaN,dog,dog,16-0-10,0056_eid_dnn_16-0-10_dog_10_n02107142_9379.png
dino_v8,1,57,NaN,dog,cat,64-0-10,0057_eid_dnn_64-0-10_cat_10_n02123394_1828.png
dino_v8,1,58,NaN,knife,car,32-0-10,0058_eid_dnn_32-0-10_car_10_n03100240_4605.png
dino_v8,1,59,NaN,elephant,bicycle,4-0-10,0059_eid_dnn_4-0-10_bicycle_10_n03792782_6765.png
dino_v8,1,60,NaN,bottle,boat,8-0-10,0060_eid_dnn_8-0-10_boat_10_n03344393_8455.png
dino_v8,1,61,NaN,oven,oven,16-0-10,0061_eid_dnn_16-0-10_oven_10_n04111531_8603.png
dino_v8,1,62,NaN,bird,bird,2-0-10,0062_eid_dnn_2-0-10_bird_10_n02051845_2574.png
dino_v8,1,63,NaN,boat,boat,4-0-10,0063_eid_dnn_4-0-10_boat_10_n04612504_15875.png
dino_v8,1,64,NaN,bottle,bottle,4-0-10,0064_eid_dnn_4-0-10_bottle_10_n03983396_7337.png
dino_v8,1,65,NaN,bear,clock,8-0-10,0065_eid_dnn_8-0-10_clock_10_n02708093_6822.png
dino_v8,1,66,NaN,truck,truck,2-0-10,0066_eid_dnn_2-0-10_truck_10_n04467665_15994.png
dino_v8,1,67,NaN,dog,cat,128-0-10,0067_eid_dnn_128-0-10_cat_10_n02123597_6291.png
dino_v8,1,68,NaN,bird,bird,8-0-10,0068_eid_dnn_8-0-10_bird_10_n01817953_1734.png
dino_v8,1,69,NaN,dog,elephant,32-0-10,0069_eid_dnn_32-0-10_elephant_10_n02504458_6880.png
dino_v8,1,70,NaN,dog,cat,16-0-10,0070_eid_dnn_16-0-10_cat_10_n02123597_13197.png
dino_v8,1,71,NaN,dog,bicycle,64-0-10,0071_eid_dnn_64-0-10_bicycle_10_n03792782_973.png
dino_v8,1,72,NaN,cat,cat,2-0-10,0072_eid_dnn_2-0-10_cat_10_n02124075_8310.png
dino_v8,1,73,NaN,elephant,oven,32-0-10,0073_eid_dnn_32-0-10_oven_10_n04111531_5168.png
dino_v8,1,74,NaN,airplane,airplane,1-0-10,0074_eid_dnn_1-0-10_airplane_10_n02690373_4893.png
dino_v8,1,75,NaN,dog,dog,1-0-10,0075_eid_dnn_1-0-10_dog_10_n02086240_3614.png
dino_v8,1,76,NaN,elephant,oven,16-0-10,0076_eid_dnn_16-0-10_oven_10_n04111531_2937.png
dino_v8,1,77,NaN,clock,clock,1-0-10,0077_eid_dnn_1-0-10_clock_10_n03196217_2022.png
dino_v8,1,78,NaN,dog,bottle,64-0-10,0078_eid_dnn_64-0-10_bottle_10_n04591713_2732.png
dino_v8,1,79,NaN,car,car,2-0-10,0079_eid_dnn_2-0-10_car_10_n03100240_8794.png
dino_v8,1,80,NaN,bird,airplane,16-0-10,0080_eid_dnn_16-0-10_airplane_10_n02690373_3640.png
dino_v8,1,81,NaN,dog,bicycle,64-0-10,0081_eid_dnn_64-0-10_bicycle_10_n03792782_41097.png
dino_v8,1,82,NaN,dog,dog,64-0-10,0082_eid_dnn_64-0-10_dog_10_n02090721_6770.png
dino_v8,1,83,NaN,elephant,cat,16-0-10,0083_eid_dnn_16-0-10_cat_10_n02123597_28968.png
dino_v8,1,84,NaN,elephant,elephant,1-0-10,0084_eid_dnn_1-0-10_elephant_10_n02504013_5894.png
dino_v8,1,85,NaN,dog,oven,32-0-10,0085_eid_dnn_32-0-10_oven_10_n04111531_9314.png
dino_v8,1,86,NaN,elephant,elephant,1-0-10,0086_eid_dnn_1-0-10_elephant_10_n02504458_12074.png
dino_v8,1,87,NaN,boat,boat,4-0-10,0087_eid_dnn_4-0-10_boat_10_n03344393_3773.png
dino_v8,1,88,NaN,dog,truck,128-0-10,0088_eid_dnn_128-0-10_truck_10_n04467665_80153.png
dino_v8,1,89,NaN,dog,chair,128-0-10,0089_eid_dnn_128-0-10_chair_10_n04099969_20604.png
dino_v8,1,90,NaN,dog,keyboard,32-0-10,0090_eid_dnn_32-0-10_keyboard_10_n03085013_23625.png
dino_v8,1,91,NaN,dog,truck,64-0-10,0091_eid_dnn_64-0-10_truck_10_n03796401_1458.png
dino_v8,1,92,NaN,car,car,4-0-10,0092_eid_dnn_4-0-10_car_10_n03100240_18711.png
dino_v8,1,93,NaN,cat,truck,128-0-10,0093_eid_dnn_128-0-10_truck_10_n03796401_2988.png
dino_v8,1,94,NaN,truck,truck,2-0-10,0094_eid_dnn_2-0-10_truck_10_n03417042_7096.png
dino_v8,1,95,NaN,dog,dog,8-0-10,0095_eid_dnn_8-0-10_dog_10_n02105855_9345.png
dino_v8,1,96,NaN,dog,bird,32-0-10,0096_eid_dnn_32-0-10_bird_10_n01796340_8342.png
dino_v8,1,97,NaN,airplane,airplane,8-0-10,0097_eid_dnn_8-0-10_airplane_10_n02690373_7293.png
dino_v8,1,98,NaN,clock,car,64-0-10,0098_eid_dnn_64-0-10_car_10_n04285008_9811.png
dino_v8,1,99,NaN,oven,knife,8-0-10,0099_eid_dnn_8-0-10_knife_10_n03041632_86783.png
dino_v8,1,100,NaN,bottle,oven,16-0-10,0100_eid_dnn_16-0-10_oven_10_n04111531_9867.png
dino_v8,1,101,NaN,cat,truck,128-0-10,0101_eid_dnn_128-0-10_truck_10_n04467665_22573.png
dino_v8,1,102,NaN,cat,car,128-0-10,0102_eid_dnn_128-0-10_car_10_n02814533_23512.png
dino_v8,1,103,NaN,dog,bicycle,16-0-10,0103_eid_dnn_16-0-10_bicycle_10_n03792782_4895.png
dino_v8,1,104,NaN,keyboard,keyboard,2-0-10,0104_eid_dnn_2-0-10_keyboard_10_n03085013_23554.png
dino_v8,1,105,NaN,bear,bear,1-0-10,0105_eid_dnn_1-0-10_bear_10_n02134084_8601.png
dino_v8,1,106,NaN,dog,bicycle,8-0-10,0106_eid_dnn_8-0-10_bicycle_10_n03792782_126.png
dino_v8,1,107,NaN,chair,chair,1-0-10,0107_eid_dnn_1-0-10_chair_10_n04099969_3583.png
dino_v8,1,108,NaN,bottle,bicycle,8-0-10,0108_eid_dnn_8-0-10_bicycle_10_n02835271_976.png
dino_v8,1,109,NaN,dog,oven,32-0-10,0109_eid_dnn_32-0-10_oven_10_n04111531_10313.png
dino_v8,1,110,NaN,oven,oven,1-0-10,0110_eid_dnn_1-0-10_oven_10_n04111531_8984.png
dino_v8,1,111,NaN,elephant,elephant,8-0-10,0111_eid_dnn_8-0-10_elephant_10_n02504013_3181.png
dino_v8,1,112,NaN,dog,keyboard,64-0-10,0112_eid_dnn_64-0-10_keyboard_10_n03085013_21490.png
dino_v8,1,113,NaN,airplane,bird,4-0-10,0113_eid_dnn_4-0-10_bird_10_n01614925_2708.png
dino_v8,1,114,NaN,dog,bottle,16-0-10,0114_eid_dnn_16-0-10_bottle_10_n03983396_3109.png
dino_v8,1,115,NaN,dog,bear,128-0-10,0115_eid_dnn_128-0-10_bear_10_n02134418_377.png
dino_v8,1,116,NaN,dog,knife,16-0-10,0116_eid_dnn_16-0-10_knife_10_n03041632_7680.png
dino_v8,1,117,NaN,truck,truck,4-0-10,0117_eid_dnn_4-0-10_truck_10_n03417042_3807.png
dino_v8,1,118,NaN,cat,elephant,128-0-10,0118_eid_dnn_128-0-10_elephant_10_n02504013_6501.png
dino_v8,1,119,NaN,cat,bicycle,32-0-10,0119_eid_dnn_32-0-10_bicycle_10_n03792782_5517.png
dino_v8,1,120,NaN,cat,bottle,128-0-10,0120_eid_dnn_128-0-10_bottle_10_n02823428_5791.png
dino_v8,1,121,NaN,dog,car,128-0-10,0121_eid_dnn_128-0-10_car_10_n04285008_10144.png
dino_v8,1,122,NaN,cat,cat,4-0-10,0122_eid_dnn_4-0-10_cat_10_n02123159_5764.png
dino_v8,1,123,NaN,dog,dog,16-0-10,0123_eid_dnn_16-0-10_dog_10_n02085936_4491.png
dino_v8,1,124,NaN,dog,bicycle,32-0-10,0124_eid_dnn_32-0-10_bicycle_10_n03792782_6159.png
dino_v8,1,125,NaN,clock,clock,4-0-10,0125_eid_dnn_4-0-10_clock_10_n04548280_2404.png
dino_v8,1,126,NaN,dog,bottle,64-0-10,0126_eid_dnn_64-0-10_bottle_10_n04591713_360.png
dino_v8,1,127,NaN,bottle,airplane,16-0-10,0127_eid_dnn_16-0-10_airplane_10_n02690373_1909.png
dino_v8,1,128,NaN,bear,bear,2-0-10,0128_eid_dnn_2-0-10_bear_10_n02133161_9724.png
dino_v8,1,129,NaN,car,car,2-0-10,0129_eid_dnn_2-0-10_car_10_n04285008_5897.png
dino_v8,1,130,NaN,bicycle,bicycle,1-0-10,0130_eid_dnn_1-0-10_bicycle_10_n02835271_9807.png
dino_v8,1,131,NaN,knife,keyboard,1-0-10,0131_eid_dnn_1-0-10_keyboard_10_n03085013_23286.png
dino_v8,1,132,NaN,clock,clock,2-0-10,0132_eid_dnn_2-0-10_clock_10_n02708093_772.png
dino_v8,1,133,NaN,clock,clock,4-0-10,0133_eid_dnn_4-0-10_clock_10_n03196217_820.png
dino_v8,1,134,NaN,dog,dog,32-0-10,0134_eid_dnn_32-0-10_dog_10_n02093754_6351.png
dino_v8,1,135,NaN,dog,truck,8-0-10,0135_eid_dnn_8-0-10_truck_10_n03417042_27093.png
dino_v8,1,136,NaN,bicycle,bicycle,4-0-10,0136_eid_dnn_4-0-10_bicycle_10_n03792782_30530.png
dino_v8,1,137,NaN,bottle,bottle,4-0-10,0137_eid_dnn_4-0-10_bottle_10_n03937543_5215.png
dino_v8,1,138,NaN,boat,boat,2-0-10,0138_eid_dnn_2-0-10_boat_10_n02951358_9933.png
dino_v8,1,139,NaN,dog,dog,4-0-10,0139_eid_dnn_4-0-10_dog_10_n02086910_8694.png
dino_v8,1,140,NaN,knife,knife,8-0-10,0140_eid_dnn_8-0-10_knife_10_n03041632_3504.png
dino_v8,1,141,NaN,clock,knife,128-0-10,0141_eid_dnn_128-0-10_knife_10_n03041632_15754.png
dino_v8,1,142,NaN,dog,truck,8-0-10,0142_eid_dnn_8-0-10_truck_10_n04467665_45306.png
dino_v8,1,143,NaN,elephant,elephant,1-0-10,0143_eid_dnn_1-0-10_elephant_10_n02504013_5351.png
dino_v8,1,144,NaN,chair,bottle,2-0-10,0144_eid_dnn_2-0-10_bottle_10_n03937543_7763.png
dino_v8,1,145,NaN,dog,bird,32-0-10,0145_eid_dnn_32-0-10_bird_10_n01843383_91.png
dino_v8,1,146,NaN,clock,clock,4-0-10,0146_eid_dnn_4-0-10_clock_10_n04548280_28.png
dino_v8,1,147,NaN,dog,knife,16-0-10,0147_eid_dnn_16-0-10_knife_10_n03041632_102828.png
dino_v8,1,148,NaN,cat,car,128-0-10,0148_eid_dnn_128-0-10_car_10_n03100240_7520.png
dino_v8,1,149,NaN,dog,knife,16-0-10,0149_eid_dnn_16-0-10_knife_10_n03041632_53874.png
dino_v8,1,150,NaN,dog,boat,16-0-10,0150_eid_dnn_16-0-10_boat_10_n04273569_3896.png
dino_v8,1,151,NaN,airplane,airplane,2-0-10,0151_eid_dnn_2-0-10_airplane_10_n02690373_6002.png
dino_v8,1,152,NaN,elephant,chair,8-0-10,0152_eid_dnn_8-0-10_chair_10_n04099969_7191.png
dino_v8,1,153,NaN,dog,dog,32-0-10,0153_eid_dnn_32-0-10_dog_10_n02101388_4808.png
dino_v8,1,154,NaN,dog,keyboard,16-0-10,0154_eid_dnn_16-0-10_keyboard_10_n03085013_24538.png
dino_v8,1,155,NaN,cat,knife,128-0-10,0155_eid_dnn_128-0-10_knife_10_n03041632_85488.png
dino_v8,1,156,NaN,car,car,4-0-10,0156_eid_dnn_4-0-10_car_10_n04285008_7630.png
dino_v8,1,157,NaN,dog,airplane,8-0-10,0157_eid_dnn_8-0-10_airplane_10_n02690373_2941.png
dino_v8,1,158,NaN,dog,bird,64-0-10,0158_eid_dnn_64-0-10_bird_10_n01514859_6021.png
dino_v8,1,159,NaN,dog,clock,64-0-10,0159_eid_dnn_64-0-10_clock_10_n04548280_3293.png
dino_v8,1,160,NaN,bottle,oven,4-0-10,0160_eid_dnn_4-0-10_oven_10_n04111531_4998.png
dino_v8,1,161,NaN,cat,bird,128-0-10,0161_eid_dnn_128-0-10_bird_10_n02028035_32993.png
dino_v8,1,162,NaN,bird,bird,2-0-10,0162_eid_dnn_2-0-10_bird_10_n01843383_7800.png
dino_v8,1,163,NaN,dog,bear,64-0-10,0163_eid_dnn_64-0-10_bear_10_n02132136_15174.png
dino_v8,1,164,NaN,chair,oven,4-0-10,0164_eid_dnn_4-0-10_oven_10_n04111531_7266.png
dino_v8,1,165,NaN,cat,cat,128-0-10,0165_eid_dnn_128-0-10_cat_10_n02124075_6464.png
dino_v8,1,166,NaN,dog,bicycle,16-0-10,0166_eid_dnn_16-0-10_bicycle_10_n02835271_4667.png
dino_v8,1,167,NaN,dog,chair,32-0-10,0167_eid_dnn_32-0-10_chair_10_n04099969_2532.png
dino_v8,1,168,NaN,bottle,bottle,4-0-10,0168_eid_dnn_4-0-10_bottle_10_n04560804_15683.png
dino_v8,1,169,NaN,dog,chair,8-0-10,0169_eid_dnn_8-0-10_chair_10_n04099969_6825.png
dino_v8,1,170,NaN,oven,oven,1-0-10,0170_eid_dnn_1-0-10_oven_10_n04111531_1612.png
dino_v8,1,171,NaN,clock,clock,2-0-10,0171_eid_dnn_2-0-10_clock_10_n02708093_1701.png
dino_v8,1,172,NaN,dog,elephant,32-0-10,0172_eid_dnn_32-0-10_elephant_10_n02504013_782.png
dino_v8,1,173,NaN,cat,dog,128-0-10,0173_eid_dnn_128-0-10_dog_10_n02107908_8814.png
dino_v8,1,174,NaN,elephant,elephant,4-0-10,0174_eid_dnn_4-0-10_elephant_10_n02504458_5816.png
dino_v8,1,175,NaN,car,car,2-0-10,0175_eid_dnn_2-0-10_car_10_n03100240_18788.png
dino_v8,1,176,NaN,airplane,airplane,16-0-10,0176_eid_dnn_16-0-10_airplane_10_n02690373_7915.png
dino_v8,1,177,NaN,chair,chair,4-0-10,0177_eid_dnn_4-0-10_chair_10_n04429376_10544.png
dino_v8,1,178,NaN,dog,knife,32-0-10,0178_eid_dnn_32-0-10_knife_10_n03041632_24883.png
dino_v8,1,179,NaN,cat,bicycle,128-0-10,0179_eid_dnn_128-0-10_bicycle_10_n03792782_10367.png
dino_v8,1,180,NaN,oven,oven,1-0-10,0180_eid_dnn_1-0-10_oven_10_n04111531_3121.png
dino_v8,1,181,NaN,cat,car,128-0-10,0181_eid_dnn_128-0-10_car_10_n02814533_10995.png
dino_v8,1,182,NaN,dog,dog,128-0-10,0182_eid_dnn_128-0-10_dog_10_n02112350_502.png
dino_v8,1,183,NaN,cat,clock,128-0-10,0183_eid_dnn_128-0-10_clock_10_n04548280_5278.png
dino_v8,1,184,NaN,bird,bird,4-0-10,0184_eid_dnn_4-0-10_bird_10_n02006656_713.png
dino_v8,1,185,NaN,dog,bottle,128-0-10,0185_eid_dnn_128-0-10_bottle_10_n04557648_4106.png
dino_v8,1,186,NaN,dog,clock,64-0-10,0186_eid_dnn_64-0-10_clock_10_n02708093_1430.png
dino_v8,1,187,NaN,oven,oven,1-0-10,0187_eid_dnn_1-0-10_oven_10_n04111531_7664.png
dino_v8,1,188,NaN,car,car,1-0-10,0188_eid_dnn_1-0-10_car_10_n02814533_149.png
dino_v8,1,189,NaN,dog,clock,64-0-10,0189_eid_dnn_64-0-10_clock_10_n04548280_8296.png
dino_v8,1,190,NaN,dog,bottle,64-0-10,0190_eid_dnn_64-0-10_bottle_10_n04591713_5815.png
dino_v8,1,191,NaN,knife,knife,2-0-10,0191_eid_dnn_2-0-10_knife_10_n03041632_90125.png
dino_v8,1,192,NaN,dog,bird,64-0-10,0192_eid_dnn_64-0-10_bird_10_n01534433_16586.png
dino_v8,1,193,NaN,cat,cat,4-0-10,0193_eid_dnn_4-0-10_cat_10_n02123394_2559.png
dino_v8,1,194,NaN,elephant,elephant,4-0-10,0194_eid_dnn_4-0-10_elephant_10_n02504458_5995.png
dino_v8,1,195,NaN,car,car,2-0-10,0195_eid_dnn_2-0-10_car_10_n02814533_211.png
dino_v8,1,196,NaN,chair,chair,1-0-10,0196_eid_dnn_1-0-10_chair_10_n04429376_13328.png
dino_v8,1,197,NaN,dog,keyboard,16-0-10,0197_eid_dnn_16-0-10_keyboard_10_n03085013_24618.png
dino_v8,1,198,NaN,bottle,oven,4-0-10,0198_eid_dnn_4-0-10_oven_10_n04111531_2186.png
dino_v8,1,199,NaN,cat,oven,8-0-10,0199_eid_dnn_8-0-10_oven_10_n04111531_114.png
dino_v8,1,200,NaN,car,car,1-0-10,0200_eid_dnn_1-0-10_car_10_n03100240_1745.png
dino_v8,1,201,NaN,cat,cat,4-0-10,0201_eid_dnn_4-0-10_cat_10_n02123394_1259.png
dino_v8,1,202,NaN,oven,oven,4-0-10,0202_eid_dnn_4-0-10_oven_10_n04111531_5801.png
dino_v8,1,203,NaN,bird,airplane,32-0-10,0203_eid_dnn_32-0-10_airplane_10_n02690373_2024.png
dino_v8,1,204,NaN,cat,cat,8-0-10,0204_eid_dnn_8-0-10_cat_10_n02123045_12181.png
dino_v8,1,205,NaN,clock,airplane,64-0-10,0205_eid_dnn_64-0-10_airplane_10_n02690373_3313.png
dino_v8,1,206,NaN,cat,truck,64-0-10,0206_eid_dnn_64-0-10_truck_10_n04467665_80465.png
dino_v8,1,207,NaN,elephant,elephant,2-0-10,0207_eid_dnn_2-0-10_elephant_10_n02504013_8626.png
dino_v8,1,208,NaN,dog,car,16-0-10,0208_eid_dnn_16-0-10_car_10_n04285008_7904.png
dino_v8,1,209,NaN,chair,airplane,8-0-10,0209_eid_dnn_8-0-10_airplane_10_n02690373_6363.png
dino_v8,1,210,NaN,cat,cat,4-0-10,0210_eid_dnn_4-0-10_cat_10_n02123045_7294.png
dino_v8,1,211,NaN,clock,airplane,128-0-10,0211_eid_dnn_128-0-10_airplane_10_n02690373_6988.png
dino_v8,1,212,NaN,cat,cat,4-0-10,0212_eid_dnn_4-0-10_cat_10_n02125311_25749.png
dino_v8,1,213,NaN,cat,bird,64-0-10,0213_eid_dnn_64-0-10_bird_10_n02018207_12980.png
dino_v8,1,214,NaN,cat,cat,32-0-10,0214_eid_dnn_32-0-10_cat_10_n02123394_2814.png
dino_v8,1,215,NaN,car,car,4-0-10,0215_eid_dnn_4-0-10_car_10_n04285008_662.png
dino_v8,1,216,NaN,bicycle,bicycle,2-0-10,0216_eid_dnn_2-0-10_bicycle_10_n03792782_11679.png
dino_v8,1,217,NaN,dog,dog,16-0-10,0217_eid_dnn_16-0-10_dog_10_n02093428_17769.png
dino_v8,1,218,NaN,dog,dog,64-0-10,0218_eid_dnn_64-0-10_dog_10_n02106030_17418.png
dino_v8,1,219,NaN,cat,chair,64-0-10,0219_eid_dnn_64-0-10_chair_10_n02791124_7142.png
dino_v8,1,220,NaN,bear,bear,1-0-10,0220_eid_dnn_1-0-10_bear_10_n02134084_18083.png
dino_v8,1,221,NaN,keyboard,keyboard,2-0-10,0221_eid_dnn_2-0-10_keyboard_10_n03085013_7536.png
dino_v8,1,222,NaN,bird,bird,1-0-10,0222_eid_dnn_1-0-10_bird_10_n01616318_2473.png
dino_v8,1,223,NaN,elephant,elephant,1-0-10,0223_eid_dnn_1-0-10_elephant_10_n02504458_5951.png
dino_v8,1,224,NaN,airplane,airplane,4-0-10,0224_eid_dnn_4-0-10_airplane_10_n02690373_5164.png
dino_v8,1,225,NaN,elephant,elephant,4-0-10,0225_eid_dnn_4-0-10_elephant_10_n02504013_1865.png
dino_v8,1,226,NaN,knife,knife,1-0-10,0226_eid_dnn_1-0-10_knife_10_n03041632_56454.png
dino_v8,1,227,NaN,dog,bird,64-0-10,0227_eid_dnn_64-0-10_bird_10_n01824575_5820.png
dino_v8,1,228,NaN,oven,oven,4-0-10,0228_eid_dnn_4-0-10_oven_10_n04111531_4332.png
dino_v8,1,229,NaN,truck,truck,2-0-10,0229_eid_dnn_2-0-10_truck_10_n04467665_41352.png
dino_v8,1,230,NaN,bird,bird,8-0-10,0230_eid_dnn_8-0-10_bird_10_n01514859_5668.png
dino_v8,1,231,NaN,dog,oven,32-0-10,0231_eid_dnn_32-0-10_oven_10_n04111531_4438.png
dino_v8,1,232,NaN,cat,cat,1-0-10,0232_eid_dnn_1-0-10_cat_10_n02123394_6693.png
dino_v8,1,233,NaN,dog,elephant,32-0-10,0233_eid_dnn_32-0-10_elephant_10_n02504458_6302.png
dino_v8,1,234,NaN,bird,bottle,16-0-10,0234_eid_dnn_16-0-10_bottle_10_n03937543_2329.png
dino_v8,1,235,NaN,cat,elephant,16-0-10,0235_eid_dnn_16-0-10_elephant_10_n02504458_5155.png
dino_v8,1,236,NaN,oven,bear,1-0-10,0236_eid_dnn_1-0-10_bear_10_n02134084_1694.png
dino_v8,1,237,NaN,cat,bear,128-0-10,0237_eid_dnn_128-0-10_bear_10_n02133161_1624.png
dino_v8,1,238,NaN,dog,bear,64-0-10,0238_eid_dnn_64-0-10_bear_10_n02132136_11027.png
dino_v8,1,239,NaN,dog,elephant,64-0-10,0239_eid_dnn_64-0-10_elephant_10_n02504013_24621.png
dino_v8,1,240,NaN,cat,knife,16-0-10,0240_eid_dnn_16-0-10_knife_10_n03041632_27134.png
dino_v8,1,241,NaN,clock,keyboard,32-0-10,0241_eid_dnn_32-0-10_keyboard_10_n03085013_24316.png
dino_v8,1,242,NaN,cat,cat,2-0-10,0242_eid_dnn_2-0-10_cat_10_n02123159_3026.png
dino_v8,1,243,NaN,cat,bicycle,128-0-10,0243_eid_dnn_128-0-10_bicycle_10_n03792782_1475.png
dino_v8,1,244,NaN,cat,cat,16-0-10,0244_eid_dnn_16-0-10_cat_10_n02123045_20507.png
dino_v8,1,245,NaN,dog,boat,64-0-10,0245_eid_dnn_64-0-10_boat_10_n02951358_23759.png
dino_v8,1,246,NaN,dog,bear,16-0-10,0246_eid_dnn_16-0-10_bear_10_n02132136_1858.png
dino_v8,1,247,NaN,cat,boat,128-0-10,0247_eid_dnn_128-0-10_boat_10_n02951358_6465.png
dino_v8,1,248,NaN,dog,airplane,128-0-10,0248_eid_dnn_128-0-10_airplane_10_n02690373_6223.png
dino_v8,1,249,NaN,dog,boat,128-0-10,0249_eid_dnn_128-0-10_boat_10_n03344393_2412.png
dino_v8,1,250,NaN,elephant,knife,8-0-10,0250_eid_dnn_8-0-10_knife_10_n03041632_6446.png
dino_v8,1,251,NaN,dog,bottle,64-0-10,0251_eid_dnn_64-0-10_bottle_10_n04591713_7940.png
dino_v8,1,252,NaN,cat,cat,4-0-10,0252_eid_dnn_4-0-10_cat_10_n02124075_13568.png
dino_v8,1,253,NaN,boat,boat,2-0-10,0253_eid_dnn_2-0-10_boat_10_n03662601_2171.png
dino_v8,1,254,NaN,elephant,elephant,1-0-10,0254_eid_dnn_1-0-10_elephant_10_n02504458_415.png
dino_v8,1,255,NaN,dog,car,16-0-10,0255_eid_dnn_16-0-10_car_10_n03100240_3386.png
dino_v8,1,256,NaN,clock,bird,16-0-10,0256_eid_dnn_16-0-10_bird_10_n02056570_6633.png
dino_v8,1,257,NaN,dog,bottle,32-0-10,0257_eid_dnn_32-0-10_bottle_10_n02823428_4232.png
dino_v8,1,258,NaN,dog,boat,128-0-10,0258_eid_dnn_128-0-10_boat_10_n04273569_2396.png
dino_v8,1,259,NaN,knife,knife,1-0-10,0259_eid_dnn_1-0-10_knife_10_n03041632_38996.png
dino_v8,1,260,NaN,dog,oven,8-0-10,0260_eid_dnn_8-0-10_oven_10_n04111531_10420.png
dino_v8,1,261,NaN,cat,dog,128-0-10,0261_eid_dnn_128-0-10_dog_10_n02094114_2394.png
dino_v8,1,262,NaN,dog,elephant,128-0-10,0262_eid_dnn_128-0-10_elephant_10_n02504013_4247.png
dino_v8,1,263,NaN,dog,chair,32-0-10,0263_eid_dnn_32-0-10_chair_10_n03376595_8137.png
dino_v8,1,264,NaN,dog,airplane,128-0-10,0264_eid_dnn_128-0-10_airplane_10_n02690373_8524.png
dino_v8,1,265,NaN,dog,car,64-0-10,0265_eid_dnn_64-0-10_car_10_n03100240_18410.png
dino_v8,1,266,NaN,cat,clock,64-0-10,0266_eid_dnn_64-0-10_clock_10_n04548280_2588.png
dino_v8,1,267,NaN,keyboard,keyboard,32-0-10,0267_eid_dnn_32-0-10_keyboard_10_n03085013_24030.png
dino_v8,1,268,NaN,clock,clock,2-0-10,0268_eid_dnn_2-0-10_clock_10_n03196217_6375.png
dino_v8,1,269,NaN,dog,airplane,32-0-10,0269_eid_dnn_32-0-10_airplane_10_n02690373_4150.png
dino_v8,1,270,NaN,elephant,dog,4-0-10,0270_eid_dnn_4-0-10_dog_10_n02086646_6567.png
dino_v8,1,271,NaN,keyboard,clock,64-0-10,0271_eid_dnn_64-0-10_clock_10_n03196217_775.png
dino_v8,1,272,NaN,car,car,1-0-10,0272_eid_dnn_1-0-10_car_10_n02814533_57353.png
dino_v8,1,273,NaN,bottle,bottle,16-0-10,0273_eid_dnn_16-0-10_bottle_10_n04560804_183.png
dino_v8,1,274,NaN,car,car,2-0-10,0274_eid_dnn_2-0-10_car_10_n04285008_10631.png
dino_v8,1,275,NaN,bear,bear,2-0-10,0275_eid_dnn_2-0-10_bear_10_n02132136_10057.png
dino_v8,1,276,NaN,clock,boat,128-0-10,0276_eid_dnn_128-0-10_boat_10_n04273569_4605.png
dino_v8,1,277,NaN,dog,cat,64-0-10,0277_eid_dnn_64-0-10_cat_10_n02123597_12711.png
dino_v8,1,278,NaN,bottle,bottle,1-0-10,0278_eid_dnn_1-0-10_bottle_10_n04560804_5610.png
dino_v8,1,279,NaN,cat,clock,32-0-10,0279_eid_dnn_32-0-10_clock_10_n04548280_8412.png
dino_v8,1,280,NaN,cat,cat,2-0-10,0280_eid_dnn_2-0-10_cat_10_n02123597_13834.png
dino_v8,1,281,NaN,dog,dog,128-0-10,0281_eid_dnn_128-0-10_dog_10_n02091831_538.png
dino_v8,1,282,NaN,dog,bicycle,32-0-10,0282_eid_dnn_32-0-10_bicycle_10_n03792782_10437.png
dino_v8,1,283,NaN,bear,bear,2-0-10,0283_eid_dnn_2-0-10_bear_10_n02132136_2372.png
dino_v8,1,284,NaN,dog,bicycle,128-0-10,0284_eid_dnn_128-0-10_bicycle_10_n03792782_4540.png
dino_v8,1,285,NaN,elephant,elephant,2-0-10,0285_eid_dnn_2-0-10_elephant_10_n02504013_10152.png
dino_v8,1,286,NaN,cat,boat,64-0-10,0286_eid_dnn_64-0-10_boat_10_n02951358_7603.png
dino_v8,1,287,NaN,bear,bear,2-0-10,0287_eid_dnn_2-0-10_bear_10_n02133161_9371.png
dino_v8,1,288,NaN,dog,truck,8-0-10,0288_eid_dnn_8-0-10_truck_10_n04467665_69892.png
dino_v8,1,289,NaN,knife,knife,1-0-10,0289_eid_dnn_1-0-10_knife_10_n03041632_19275.png
dino_v8,1,290,NaN,bottle,keyboard,16-0-10,0290_eid_dnn_16-0-10_keyboard_10_n04505470_9446.png
dino_v8,1,291,NaN,elephant,elephant,1-0-10,0291_eid_dnn_1-0-10_elephant_10_n02504013_9141.png
dino_v8,1,292,NaN,dog,bird,128-0-10,0292_eid_dnn_128-0-10_bird_10_n02056570_8553.png
dino_v8,1,293,NaN,car,car,1-0-10,0293_eid_dnn_1-0-10_car_10_n03100240_9171.png
dino_v8,1,294,NaN,dog,dog,8-0-10,0294_eid_dnn_8-0-10_dog_10_n02102177_1533.png
dino_v8,1,295,NaN,dog,cat,64-0-10,0295_eid_dnn_64-0-10_cat_10_n02124075_12464.png
dino_v8,1,296,NaN,chair,chair,4-0-10,0296_eid_dnn_4-0-10_chair_10_n04429376_33792.png
dino_v8,1,297,NaN,cat,bear,128-0-10,0297_eid_dnn_128-0-10_bear_10_n02133161_3258.png
dino_v8,1,298,NaN,elephant,dog,4-0-10,0298_eid_dnn_4-0-10_dog_10_n02097130_1442.png
dino_v8,1,299,NaN,chair,chair,4-0-10,0299_eid_dnn_4-0-10_chair_10_n02791124_8970.png
dino_v8,1,300,NaN,elephant,car,8-0-10,0300_eid_dnn_8-0-10_car_10_n04285008_8545.png
dino_v8,1,301,NaN,truck,truck,1-0-10,0301_eid_dnn_1-0-10_truck_10_n03417042_2204.png
dino_v8,1,302,NaN,bear,bear,2-0-10,0302_eid_dnn_2-0-10_bear_10_n02133161_15593.png
dino_v8,1,303,NaN,clock,clock,2-0-10,0303_eid_dnn_2-0-10_clock_10_n04548280_5845.png
dino_v8,1,304,NaN,knife,knife,4-0-10,0304_eid_dnn_4-0-10_knife_10_n03041632_4975.png
dino_v8,1,305,NaN,dog,clock,32-0-10,0305_eid_dnn_32-0-10_clock_10_n03196217_4849.png
dino_v8,1,306,NaN,bicycle,bicycle,2-0-10,0306_eid_dnn_2-0-10_bicycle_10_n03792782_15752.png
dino_v8,1,307,NaN,cat,bicycle,16-0-10,0307_eid_dnn_16-0-10_bicycle_10_n02835271_29741.png
dino_v8,1,308,NaN,bottle,chair,4-0-10,0308_eid_dnn_4-0-10_chair_10_n04099969_16619.png
dino_v8,1,309,NaN,keyboard,keyboard,4-0-10,0309_eid_dnn_4-0-10_keyboard_10_n04505470_4552.png
dino_v8,1,310,NaN,cat,boat,8-0-10,0310_eid_dnn_8-0-10_boat_10_n02951358_13144.png
dino_v8,1,311,NaN,cat,bird,32-0-10,0311_eid_dnn_32-0-10_bird_10_n01797886_14611.png
dino_v8,1,312,NaN,knife,knife,1-0-10,0312_eid_dnn_1-0-10_knife_10_n03041632_3326.png
dino_v8,1,313,NaN,cat,elephant,8-0-10,0313_eid_dnn_8-0-10_elephant_10_n02504013_5829.png
dino_v8,1,314,NaN,cat,dog,16-0-10,0314_eid_dnn_16-0-10_dog_10_n02088094_2292.png
dino_v8,1,315,NaN,cat,oven,8-0-10,0315_eid_dnn_8-0-10_oven_10_n04111531_4944.png
dino_v8,1,316,NaN,dog,oven,32-0-10,0316_eid_dnn_32-0-10_oven_10_n04111531_669.png
dino_v8,1,317,NaN,dog,car,64-0-10,0317_eid_dnn_64-0-10_car_10_n02814533_6716.png
dino_v8,1,318,NaN,elephant,bear,32-0-10,0318_eid_dnn_32-0-10_bear_10_n02132136_26438.png
dino_v8,1,319,NaN,bottle,bottle,4-0-10,0319_eid_dnn_4-0-10_bottle_10_n03983396_3027.png
dino_v8,1,320,NaN,elephant,elephant,2-0-10,0320_eid_dnn_2-0-10_elephant_10_n02504013_9299.png
dino_v8,1,321,NaN,knife,knife,2-0-10,0321_eid_dnn_2-0-10_knife_10_n03041632_13846.png
dino_v8,1,322,NaN,bottle,airplane,64-0-10,0322_eid_dnn_64-0-10_airplane_10_n02690373_16250.png
dino_v8,1,323,NaN,cat,boat,64-0-10,0323_eid_dnn_64-0-10_boat_10_n03662601_13696.png
dino_v8,1,324,NaN,cat,cat,1-0-10,0324_eid_dnn_1-0-10_cat_10_n02123597_5692.png
dino_v8,1,325,NaN,dog,clock,8-0-10,0325_eid_dnn_8-0-10_clock_10_n02708093_3171.png
dino_v8,1,326,NaN,dog,keyboard,128-0-10,0326_eid_dnn_128-0-10_keyboard_10_n04505470_4902.png
dino_v8,1,327,NaN,dog,dog,2-0-10,0327_eid_dnn_2-0-10_dog_10_n02113624_1170.png
dino_v8,1,328,NaN,clock,clock,2-0-10,0328_eid_dnn_2-0-10_clock_10_n03196217_1272.png
dino_v8,1,329,NaN,cat,cat,128-0-10,0329_eid_dnn_128-0-10_cat_10_n02123394_8946.png
dino_v8,1,330,NaN,bottle,car,8-0-10,0330_eid_dnn_8-0-10_car_10_n03100240_7134.png
dino_v8,1,331,NaN,bicycle,bicycle,4-0-10,0331_eid_dnn_4-0-10_bicycle_10_n03792782_16034.png
dino_v8,1,332,NaN,elephant,dog,8-0-10,0332_eid_dnn_8-0-10_dog_10_n02104029_5465.png
dino_v8,1,333,NaN,keyboard,keyboard,4-0-10,0333_eid_dnn_4-0-10_keyboard_10_n04505470_5011.png
dino_v8,1,334,NaN,dog,bird,8-0-10,0334_eid_dnn_8-0-10_bird_10_n02009912_27132.png
dino_v8,1,335,NaN,bird,knife,64-0-10,0335_eid_dnn_64-0-10_knife_10_n03041632_3171.png
dino_v8,1,336,NaN,bird,bear,32-0-10,0336_eid_dnn_32-0-10_bear_10_n02134084_21170.png
dino_v8,1,337,NaN,dog,dog,4-0-10,0337_eid_dnn_4-0-10_dog_10_n02086079_29044.png
dino_v8,1,338,NaN,cat,cat,4-0-10,0338_eid_dnn_4-0-10_cat_10_n02124075_8465.png
dino_v8,1,339,NaN,knife,bird,128-0-10,0339_eid_dnn_128-0-10_bird_10_n01855032_982.png
dino_v8,1,340,NaN,dog,truck,32-0-10,0340_eid_dnn_32-0-10_truck_10_n03417042_6373.png
dino_v8,1,341,NaN,bottle,airplane,16-0-10,0341_eid_dnn_16-0-10_airplane_10_n02690373_9959.png
dino_v8,1,342,NaN,dog,clock,32-0-10,0342_eid_dnn_32-0-10_clock_10_n04548280_2260.png
dino_v8,1,343,NaN,elephant,bottle,16-0-10,0343_eid_dnn_16-0-10_bottle_10_n03983396_5281.png
dino_v8,1,344,NaN,cat,cat,4-0-10,0344_eid_dnn_4-0-10_cat_10_n02123159_1113.png
dino_v8,1,345,NaN,dog,keyboard,64-0-10,0345_eid_dnn_64-0-10_keyboard_10_n03085013_20460.png
dino_v8,1,346,NaN,oven,clock,8-0-10,0346_eid_dnn_8-0-10_clock_10_n03196217_884.png
dino_v8,1,347,NaN,bottle,clock,8-0-10,0347_eid_dnn_8-0-10_clock_10_n03196217_6257.png
dino_v8,1,348,NaN,dog,dog,32-0-10,0348_eid_dnn_32-0-10_dog_10_n02113624_2109.png
dino_v8,1,349,NaN,keyboard,keyboard,1-0-10,0349_eid_dnn_1-0-10_keyboard_10_n03085013_20416.png
dino_v8,1,350,NaN,bird,bird,2-0-10,0350_eid_dnn_2-0-10_bird_10_n01820546_4609.png
dino_v8,1,351,NaN,dog,cat,64-0-10,0351_eid_dnn_64-0-10_cat_10_n02125311_47792.png
dino_v8,1,352,NaN,bird,boat,16-0-10,0352_eid_dnn_16-0-10_boat_10_n04612504_1491.png
dino_v8,1,353,NaN,oven,truck,16-0-10,0353_eid_dnn_16-0-10_truck_10_n03417042_910.png
dino_v8,1,354,NaN,clock,airplane,64-0-10,0354_eid_dnn_64-0-10_airplane_10_n02690373_2038.png
dino_v8,1,355,NaN,cat,cat,2-0-10,0355_eid_dnn_2-0-10_cat_10_n02123394_8164.png
dino_v8,1,356,NaN,oven,oven,2-0-10,0356_eid_dnn_2-0-10_oven_10_n04111531_22097.png
dino_v8,1,357,NaN,cat,bear,128-0-10,0357_eid_dnn_128-0-10_bear_10_n02134418_278.png
dino_v8,1,358,NaN,bird,bird,4-0-10,0358_eid_dnn_4-0-10_bird_10_n01592084_9109.png
dino_v8,1,359,NaN,dog,clock,32-0-10,0359_eid_dnn_32-0-10_clock_10_n03196217_3695.png
dino_v8,1,360,NaN,cat,elephant,128-0-10,0360_eid_dnn_128-0-10_elephant_10_n02504458_8939.png
dino_v8,1,361,NaN,elephant,elephant,2-0-10,0361_eid_dnn_2-0-10_elephant_10_n02504013_7926.png
dino_v8,1,362,NaN,bear,bear,4-0-10,0362_eid_dnn_4-0-10_bear_10_n02133161_11816.png
dino_v8,1,363,NaN,bird,bird,2-0-10,0363_eid_dnn_2-0-10_bird_10_n02056570_18300.png
dino_v8,1,364,NaN,bicycle,chair,2-0-10,0364_eid_dnn_2-0-10_chair_10_n02791124_7063.png
dino_v8,1,365,NaN,bottle,chair,8-0-10,0365_eid_dnn_8-0-10_chair_10_n03376595_8289.png
dino_v8,1,366,NaN,airplane,airplane,4-0-10,0366_eid_dnn_4-0-10_airplane_10_n02690373_4434.png
dino_v8,1,367,NaN,truck,truck,1-0-10,0367_eid_dnn_1-0-10_truck_10_n03417042_8953.png
dino_v8,1,368,NaN,dog,bear,64-0-10,0368_eid_dnn_64-0-10_bear_10_n02132136_699.png
dino_v8,1,369,NaN,keyboard,knife,8-0-10,0369_eid_dnn_8-0-10_knife_10_n03041632_20517.png
dino_v8,1,370,NaN,cat,bottle,32-0-10,0370_eid_dnn_32-0-10_bottle_10_n03983396_1910.png
dino_v8,1,371,NaN,dog,oven,8-0-10,0371_eid_dnn_8-0-10_oven_10_n04111531_16198.png
dino_v8,1,372,NaN,clock,elephant,64-0-10,0372_eid_dnn_64-0-10_elephant_10_n02504013_13427.png
dino_v8,1,373,NaN,bird,airplane,16-0-10,0373_eid_dnn_16-0-10_airplane_10_n02690373_1075.png
dino_v8,1,374,NaN,cat,car,64-0-10,0374_eid_dnn_64-0-10_car_10_n03100240_5527.png
dino_v8,1,375,NaN,bear,bear,1-0-10,0375_eid_dnn_1-0-10_bear_10_n02132136_4632.png
dino_v8,1,376,NaN,boat,boat,1-0-10,0376_eid_dnn_1-0-10_boat_10_n04273569_6158.png
dino_v8,1,377,NaN,dog,knife,32-0-10,0377_eid_dnn_32-0-10_knife_10_n03041632_18141.png
dino_v8,1,378,NaN,elephant,bear,16-0-10,0378_eid_dnn_16-0-10_bear_10_n02132136_6378.png
dino_v8,1,379,NaN,elephant,elephant,2-0-10,0379_eid_dnn_2-0-10_elephant_10_n02504458_5095.png
dino_v8,1,380,NaN,elephant,elephant,4-0-10,0380_eid_dnn_4-0-10_elephant_10_n02504013_10582.png
dino_v8,1,381,NaN,dog,chair,16-0-10,0381_eid_dnn_16-0-10_chair_10_n04099969_28139.png
dino_v8,1,382,NaN,keyboard,keyboard,2-0-10,0382_eid_dnn_2-0-10_keyboard_10_n04505470_279.png
dino_v8,1,383,NaN,bottle,car,8-0-10,0383_eid_dnn_8-0-10_car_10_n02814533_79696.png
dino_v8,1,384,NaN,dog,cat,64-0-10,0384_eid_dnn_64-0-10_cat_10_n02124075_7984.png
dino_v8,1,385,NaN,bear,car,4-0-10,0385_eid_dnn_4-0-10_car_10_n02814533_27327.png
dino_v8,1,386,NaN,bear,bear,4-0-10,0386_eid_dnn_4-0-10_bear_10_n02134084_967.png
dino_v8,1,387,NaN,cat,bear,64-0-10,0387_eid_dnn_64-0-10_bear_10_n02132136_949.png
dino_v8,1,388,NaN,dog,bicycle,16-0-10,0388_eid_dnn_16-0-10_bicycle_10_n03792782_2905.png
dino_v8,1,389,NaN,dog,bicycle,8-0-10,0389_eid_dnn_8-0-10_bicycle_10_n03792782_34550.png
dino_v8,1,390,NaN,elephant,bear,16-0-10,0390_eid_dnn_16-0-10_bear_10_n02132136_9055.png
dino_v8,1,391,NaN,dog,bear,64-0-10,0391_eid_dnn_64-0-10_bear_10_n02134084_7904.png
dino_v8,1,392,NaN,clock,clock,4-0-10,0392_eid_dnn_4-0-10_clock_10_n04548280_4526.png
dino_v8,1,393,NaN,bottle,bottle,1-0-10,0393_eid_dnn_1-0-10_bottle_10_n02823428_685.png
dino_v8,1,394,NaN,dog,keyboard,64-0-10,0394_eid_dnn_64-0-10_keyboard_10_n04505470_3935.png
dino_v8,1,395,NaN,cat,dog,64-0-10,0395_eid_dnn_64-0-10_dog_10_n02096051_3825.png
dino_v8,1,396,NaN,dog,dog,2-0-10,0396_eid_dnn_2-0-10_dog_10_n02089078_10601.png
dino_v8,1,397,NaN,clock,clock,2-0-10,0397_eid_dnn_2-0-10_clock_10_n02708093_5236.png
dino_v8,1,398,NaN,cat,cat,2-0-10,0398_eid_dnn_2-0-10_cat_10_n02123159_2682.png
dino_v8,1,399,NaN,truck,oven,1-0-10,0399_eid_dnn_1-0-10_oven_10_n04111531_10216.png
dino_v8,1,400,NaN,boat,boat,2-0-10,0400_eid_dnn_2-0-10_boat_10_n02951358_7137.png
dino_v8,1,401,NaN,dog,bird,64-0-10,0401_eid_dnn_64-0-10_bird_10_n02007558_6127.png
dino_v8,1,402,NaN,dog,dog,16-0-10,0402_eid_dnn_16-0-10_dog_10_n02096051_4804.png
dino_v8,1,403,NaN,bottle,bottle,8-0-10,0403_eid_dnn_8-0-10_bottle_10_n03983396_13764.png
dino_v8,1,404,NaN,dog,knife,32-0-10,0404_eid_dnn_32-0-10_knife_10_n03041632_105081.png
dino_v8,1,405,NaN,dog,boat,8-0-10,0405_eid_dnn_8-0-10_boat_10_n03344393_3535.png
dino_v8,1,406,NaN,dog,keyboard,64-0-10,0406_eid_dnn_64-0-10_keyboard_10_n03085013_22929.png
dino_v8,1,407,NaN,bottle,bottle,1-0-10,0407_eid_dnn_1-0-10_bottle_10_n04579145_5979.png
dino_v8,1,408,NaN,knife,knife,2-0-10,0408_eid_dnn_2-0-10_knife_10_n03041632_31301.png
dino_v8,1,409,NaN,cat,car,128-0-10,0409_eid_dnn_128-0-10_car_10_n04285008_14653.png
dino_v8,1,410,NaN,oven,clock,16-0-10,0410_eid_dnn_16-0-10_clock_10_n03196217_1601.png
dino_v8,1,411,NaN,dog,bicycle,8-0-10,0411_eid_dnn_8-0-10_bicycle_10_n02835271_25268.png
dino_v8,1,412,NaN,elephant,bird,16-0-10,0412_eid_dnn_16-0-10_bird_10_n02037110_875.png
dino_v8,1,413,NaN,dog,airplane,128-0-10,0413_eid_dnn_128-0-10_airplane_10_n02690373_6807.png
dino_v8,1,414,NaN,bottle,clock,16-0-10,0414_eid_dnn_16-0-10_clock_10_n04548280_10066.png
dino_v8,1,415,NaN,dog,boat,64-0-10,0415_eid_dnn_64-0-10_boat_10_n02951358_15252.png
dino_v8,1,416,NaN,cat,car,64-0-10,0416_eid_dnn_64-0-10_car_10_n02814533_4803.png
dino_v8,1,417,NaN,dog,car,16-0-10,0417_eid_dnn_16-0-10_car_10_n03100240_24544.png
dino_v8,1,418,NaN,dog,bear,128-0-10,0418_eid_dnn_128-0-10_bear_10_n02132136_4219.png
dino_v8,1,419,NaN,dog,bicycle,32-0-10,0419_eid_dnn_32-0-10_bicycle_10_n02835271_507.png
dino_v8,1,420,NaN,boat,boat,1-0-10,0420_eid_dnn_1-0-10_boat_10_n04273569_13290.png
dino_v8,1,421,NaN,bicycle,bicycle,2-0-10,0421_eid_dnn_2-0-10_bicycle_10_n03792782_42626.png
dino_v8,1,422,NaN,dog,dog,8-0-10,0422_eid_dnn_8-0-10_dog_10_n02106382_3856.png
dino_v8,1,423,NaN,clock,clock,1-0-10,0423_eid_dnn_1-0-10_clock_10_n02708093_274.png
dino_v8,1,424,NaN,dog,bottle,32-0-10,0424_eid_dnn_32-0-10_bottle_10_n04591713_5921.png
dino_v8,1,425,NaN,elephant,elephant,1-0-10,0425_eid_dnn_1-0-10_elephant_10_n02504458_3851.png
dino_v8,1,426,NaN,dog,dog,32-0-10,0426_eid_dnn_32-0-10_dog_10_n02105855_995.png
dino_v8,1,427,NaN,airplane,airplane,2-0-10,0427_eid_dnn_2-0-10_airplane_10_n02690373_1979.png
dino_v8,1,428,NaN,airplane,airplane,1-0-10,0428_eid_dnn_1-0-10_airplane_10_n02690373_6455.png
dino_v8,1,429,NaN,oven,oven,1-0-10,0429_eid_dnn_1-0-10_oven_10_n04111531_18979.png
dino_v8,1,430,NaN,dog,oven,32-0-10,0430_eid_dnn_32-0-10_oven_10_n04111531_16795.png
dino_v8,1,431,NaN,truck,truck,4-0-10,0431_eid_dnn_4-0-10_truck_10_n04467665_41076.png
dino_v8,1,432,NaN,clock,bird,16-0-10,0432_eid_dnn_16-0-10_bird_10_n01534433_31697.png
dino_v8,1,433,NaN,cat,keyboard,128-0-10,0433_eid_dnn_128-0-10_keyboard_10_n04505470_4289.png
dino_v8,1,434,NaN,keyboard,keyboard,4-0-10,0434_eid_dnn_4-0-10_keyboard_10_n03085013_20727.png
dino_v8,1,435,NaN,boat,boat,8-0-10,0435_eid_dnn_8-0-10_boat_10_n04273569_7315.png
dino_v8,1,436,NaN,car,car,1-0-10,0436_eid_dnn_1-0-10_car_10_n03100240_16646.png
dino_v8,1,437,NaN,oven,car,16-0-10,0437_eid_dnn_16-0-10_car_10_n03100240_5281.png
dino_v8,1,438,NaN,bottle,airplane,128-0-10,0438_eid_dnn_128-0-10_airplane_10_n02690373_1670.png
dino_v8,1,439,NaN,cat,airplane,128-0-10,0439_eid_dnn_128-0-10_airplane_10_n02690373_9293.png
dino_v8,1,440,NaN,cat,truck,128-0-10,0440_eid_dnn_128-0-10_truck_10_n03796401_15846.png
dino_v8,1,441,NaN,dog,truck,32-0-10,0441_eid_dnn_32-0-10_truck_10_n03796401_6971.png
dino_v8,1,442,NaN,dog,oven,128-0-10,0442_eid_dnn_128-0-10_oven_10_n04111531_10724.png
dino_v8,1,443,NaN,cat,keyboard,8-0-10,0443_eid_dnn_8-0-10_keyboard_10_n03085013_22187.png
dino_v8,1,444,NaN,dog,oven,8-0-10,0444_eid_dnn_8-0-10_oven_10_n04111531_4671.png
dino_v8,1,445,NaN,airplane,airplane,4-0-10,0445_eid_dnn_4-0-10_airplane_10_n02690373_5142.png
dino_v8,1,446,NaN,elephant,elephant,4-0-10,0446_eid_dnn_4-0-10_elephant_10_n02504013_8562.png
dino_v8,1,447,NaN,truck,truck,1-0-10,0447_eid_dnn_1-0-10_truck_10_n03417042_9668.png
dino_v8,1,448,NaN,dog,bottle,8-0-10,0448_eid_dnn_8-0-10_bottle_10_n03983396_10330.png
dino_v8,1,449,NaN,cat,elephant,128-0-10,0449_eid_dnn_128-0-10_elephant_10_n02504458_4395.png
dino_v8,1,450,NaN,dog,boat,64-0-10,0450_eid_dnn_64-0-10_boat_10_n03344393_4562.png
dino_v8,1,451,NaN,oven,oven,2-0-10,0451_eid_dnn_2-0-10_oven_10_n04111531_10011.png
dino_v8,1,452,NaN,cat,oven,64-0-10,0452_eid_dnn_64-0-10_oven_10_n04111531_13797.png
dino_v8,1,453,NaN,boat,boat,2-0-10,0453_eid_dnn_2-0-10_boat_10_n03662601_840.png
dino_v8,1,454,NaN,dog,truck,16-0-10,0454_eid_dnn_16-0-10_truck_10_n03417042_17037.png
dino_v8,1,455,NaN,dog,cat,64-0-10,0455_eid_dnn_64-0-10_cat_10_n02125311_2576.png
dino_v8,1,456,NaN,knife,keyboard,32-0-10,0456_eid_dnn_32-0-10_keyboard_10_n03085013_3264.png
dino_v8,1,457,NaN,bird,dog,64-0-10,0457_eid_dnn_64-0-10_dog_10_n02097130_3519.png
dino_v8,1,458,NaN,bird,airplane,16-0-10,0458_eid_dnn_16-0-10_airplane_10_n02690373_4486.png
dino_v8,1,459,NaN,dog,bottle,16-0-10,0459_eid_dnn_16-0-10_bottle_10_n03983396_19635.png
dino_v8,1,460,NaN,dog,airplane,16-0-10,0460_eid_dnn_16-0-10_airplane_10_n02690373_1426.png
dino_v8,1,461,NaN,oven,oven,4-0-10,0461_eid_dnn_4-0-10_oven_10_n04111531_5279.png
dino_v8,1,462,NaN,dog,bottle,64-0-10,0462_eid_dnn_64-0-10_bottle_10_n03983396_4024.png
dino_v8,1,463,NaN,dog,bear,8-0-10,0463_eid_dnn_8-0-10_bear_10_n02133161_12751.png
dino_v8,1,464,NaN,dog,car,8-0-10,0464_eid_dnn_8-0-10_car_10_n02814533_12271.png
dino_v8,1,465,NaN,bottle,bottle,16-0-10,0465_eid_dnn_16-0-10_bottle_10_n04560804_5068.png
dino_v8,1,466,NaN,clock,bottle,128-0-10,0466_eid_dnn_128-0-10_bottle_10_n04579145_1168.png
dino_v8,1,467,NaN,cat,knife,64-0-10,0467_eid_dnn_64-0-10_knife_10_n03041632_2973.png
dino_v8,1,468,NaN,dog,airplane,16-0-10,0468_eid_dnn_16-0-10_airplane_10_n02690373_19329.png
dino_v8,1,469,NaN,bird,bottle,32-0-10,0469_eid_dnn_32-0-10_bottle_10_n04560804_1356.png
dino_v8,1,470,NaN,cat,bear,8-0-10,0470_eid_dnn_8-0-10_bear_10_n02134084_3960.png
dino_v8,1,471,NaN,boat,boat,4-0-10,0471_eid_dnn_4-0-10_boat_10_n04612504_27504.png
dino_v8,1,472,NaN,dog,dog,4-0-10,0472_eid_dnn_4-0-10_dog_10_n02099601_9973.png
dino_v8,1,473,NaN,dog,truck,64-0-10,0473_eid_dnn_64-0-10_truck_10_n03417042_26843.png
dino_v8,1,474,NaN,clock,knife,64-0-10,0474_eid_dnn_64-0-10_knife_10_n03041632_55711.png
dino_v8,1,475,NaN,dog,elephant,8-0-10,0475_eid_dnn_8-0-10_elephant_10_n02504013_1986.png
dino_v8,1,476,NaN,keyboard,keyboard,4-0-10,0476_eid_dnn_4-0-10_keyboard_10_n03085013_9475.png
dino_v8,1,477,NaN,dog,elephant,32-0-10,0477_eid_dnn_32-0-10_elephant_10_n02504458_3381.png
dino_v8,1,478,NaN,airplane,airplane,8-0-10,0478_eid_dnn_8-0-10_airplane_10_n02690373_1161.png
dino_v8,1,479,NaN,dog,cat,64-0-10,0479_eid_dnn_64-0-10_cat_10_n02124075_7474.png
dino_v8,1,480,NaN,cat,cat,4-0-10,0480_eid_dnn_4-0-10_cat_10_n02125311_9074.png
dino_v8,1,481,NaN,dog,airplane,128-0-10,0481_eid_dnn_128-0-10_airplane_10_n02690373_2867.png
dino_v8,1,482,NaN,elephant,elephant,2-0-10,0482_eid_dnn_2-0-10_elephant_10_n02504013_1692.png
dino_v8,1,483,NaN,dog,bird,8-0-10,0483_eid_dnn_8-0-10_bird_10_n02009912_11813.png
dino_v8,1,484,NaN,knife,bottle,16-0-10,0484_eid_dnn_16-0-10_bottle_10_n04557648_10302.png
dino_v8,1,485,NaN,bottle,keyboard,4-0-10,0485_eid_dnn_4-0-10_keyboard_10_n03085013_20302.png
dino_v8,1,486,NaN,cat,elephant,128-0-10,0486_eid_dnn_128-0-10_elephant_10_n02504458_5827.png
dino_v8,1,487,NaN,knife,knife,1-0-10,0487_eid_dnn_1-0-10_knife_10_n03041632_11327.png
dino_v8,1,488,NaN,bird,bird,4-0-10,0488_eid_dnn_4-0-10_bird_10_n01795545_17770.png
dino_v8,1,489,NaN,bicycle,bicycle,4-0-10,0489_eid_dnn_4-0-10_bicycle_10_n02835271_10932.png
dino_v8,1,490,NaN,cat,cat,2-0-10,0490_eid_dnn_2-0-10_cat_10_n02123597_14233.png
dino_v8,1,491,NaN,bird,bird,1-0-10,0491_eid_dnn_1-0-10_bird_10_n01614925_7662.png
dino_v8,1,492,NaN,bear,truck,16-0-10,0492_eid_dnn_16-0-10_truck_10_n03417042_5875.png
dino_v8,1,493,NaN,bear,bear,1-0-10,0493_eid_dnn_1-0-10_bear_10_n02134418_304.png
dino_v8,1,494,NaN,bird,bird,1-0-10,0494_eid_dnn_1-0-10_bird_10_n01622779_5148.png
dino_v8,1,495,NaN,knife,knife,1-0-10,0495_eid_dnn_1-0-10_knife_10_n03041632_44230.png
dino_v8,1,496,NaN,dog,boat,32-0-10,0496_eid_dnn_32-0-10_boat_10_n03662601_8650.png
dino_v8,1,497,NaN,dog,oven,16-0-10,0497_eid_dnn_16-0-10_oven_10_n04111531_4346.png
dino_v8,1,498,NaN,clock,clock,2-0-10,0498_eid_dnn_2-0-10_clock_10_n03196217_2201.png
dino_v8,1,499,NaN,dog,bicycle,64-0-10,0499_eid_dnn_64-0-10_bicycle_10_n02835271_8757.png
dino_v8,1,500,NaN,knife,keyboard,8-0-10,0500_eid_dnn_8-0-10_keyboard_10_n03085013_23563.png
dino_v8,1,501,NaN,dog,boat,64-0-10,0501_eid_dnn_64-0-10_boat_10_n04273569_15879.png
dino_v8,1,502,NaN,dog,truck,64-0-10,0502_eid_dnn_64-0-10_truck_10_n04467665_30588.png
dino_v8,1,503,NaN,dog,truck,16-0-10,0503_eid_dnn_16-0-10_truck_10_n03417042_1875.png
dino_v8,1,504,NaN,dog,cat,128-0-10,0504_eid_dnn_128-0-10_cat_10_n02123394_6014.png
dino_v8,1,505,NaN,boat,boat,1-0-10,0505_eid_dnn_1-0-10_boat_10_n04273569_10847.png
dino_v8,1,506,NaN,dog,elephant,64-0-10,0506_eid_dnn_64-0-10_elephant_10_n02504013_5495.png
dino_v8,1,507,NaN,cat,bottle,128-0-10,0507_eid_dnn_128-0-10_bottle_10_n04560804_16276.png
dino_v8,1,508,NaN,truck,car,1-0-10,0508_eid_dnn_1-0-10_car_10_n04285008_1243.png
dino_v8,1,509,NaN,dog,keyboard,32-0-10,0509_eid_dnn_32-0-10_keyboard_10_n03085013_22027.png
dino_v8,1,510,NaN,dog,cat,32-0-10,0510_eid_dnn_32-0-10_cat_10_n02123045_12766.png
dino_v8,1,511,NaN,dog,chair,64-0-10,0511_eid_dnn_64-0-10_chair_10_n04429376_29954.png
dino_v8,1,512,NaN,dog,elephant,32-0-10,0512_eid_dnn_32-0-10_elephant_10_n02504013_5678.png
dino_v8,1,513,NaN,chair,chair,4-0-10,0513_eid_dnn_4-0-10_chair_10_n03376595_6333.png
dino_v8,1,514,NaN,keyboard,keyboard,2-0-10,0514_eid_dnn_2-0-10_keyboard_10_n03085013_22605.png
dino_v8,1,515,NaN,clock,car,32-0-10,0515_eid_dnn_32-0-10_car_10_n04285008_16557.png
dino_v8,1,516,NaN,dog,bottle,64-0-10,0516_eid_dnn_64-0-10_bottle_10_n02823428_1034.png
dino_v8,1,517,NaN,dog,elephant,16-0-10,0517_eid_dnn_16-0-10_elephant_10_n02504013_7777.png
dino_v8,1,518,NaN,knife,knife,4-0-10,0518_eid_dnn_4-0-10_knife_10_n03041632_14293.png
dino_v8,1,519,NaN,clock,knife,8-0-10,0519_eid_dnn_8-0-10_knife_10_n03041632_50423.png
dino_v8,1,520,NaN,chair,chair,2-0-10,0520_eid_dnn_2-0-10_chair_10_n03376595_3043.png
dino_v8,1,521,NaN,cat,cat,8-0-10,0521_eid_dnn_8-0-10_cat_10_n02123394_2434.png
dino_v8,1,522,NaN,truck,truck,1-0-10,0522_eid_dnn_1-0-10_truck_10_n04467665_54079.png
dino_v8,1,523,NaN,bird,bird,2-0-10,0523_eid_dnn_2-0-10_bird_10_n01855672_1001.png
dino_v8,1,524,NaN,bottle,bottle,1-0-10,0524_eid_dnn_1-0-10_bottle_10_n04560804_6112.png
dino_v8,1,525,NaN,keyboard,keyboard,1-0-10,0525_eid_dnn_1-0-10_keyboard_10_n04505470_1744.png
dino_v8,1,526,NaN,cat,boat,32-0-10,0526_eid_dnn_32-0-10_boat_10_n02951358_15087.png
dino_v8,1,527,NaN,bottle,bottle,4-0-10,0527_eid_dnn_4-0-10_bottle_10_n04557648_10051.png
dino_v8,1,528,NaN,dog,bear,64-0-10,0528_eid_dnn_64-0-10_bear_10_n02134084_5794.png
dino_v8,1,529,NaN,keyboard,keyboard,4-0-10,0529_eid_dnn_4-0-10_keyboard_10_n04505470_751.png
dino_v8,1,530,NaN,clock,boat,128-0-10,0530_eid_dnn_128-0-10_boat_10_n04273569_9306.png
dino_v8,1,531,NaN,dog,chair,16-0-10,0531_eid_dnn_16-0-10_chair_10_n02791124_9162.png
dino_v8,1,532,NaN,dog,bicycle,128-0-10,0532_eid_dnn_128-0-10_bicycle_10_n02835271_25033.png
dino_v8,1,533,NaN,cat,keyboard,128-0-10,0533_eid_dnn_128-0-10_keyboard_10_n04505470_3905.png
dino_v8,1,534,NaN,knife,knife,4-0-10,0534_eid_dnn_4-0-10_knife_10_n03041632_32054.png
dino_v8,1,535,NaN,cat,clock,8-0-10,0535_eid_dnn_8-0-10_clock_10_n03196217_13380.png
dino_v8,1,536,NaN,dog,chair,32-0-10,0536_eid_dnn_32-0-10_chair_10_n03376595_8083.png
dino_v8,1,537,NaN,cat,cat,8-0-10,0537_eid_dnn_8-0-10_cat_10_n02125311_47927.png
dino_v8,1,538,NaN,dog,boat,64-0-10,0538_eid_dnn_64-0-10_boat_10_n04273569_1141.png
dino_v8,1,539,NaN,dog,dog,64-0-10,0539_eid_dnn_64-0-10_dog_10_n02097130_5859.png
dino_v8,1,540,NaN,elephant,dog,16-0-10,0540_eid_dnn_16-0-10_dog_10_n02090721_835.png
dino_v8,1,541,NaN,dog,bear,128-0-10,0541_eid_dnn_128-0-10_bear_10_n02132136_15806.png
dino_v8,1,542,NaN,dog,cat,128-0-10,0542_eid_dnn_128-0-10_cat_10_n02124075_12069.png
dino_v8,1,543,NaN,oven,oven,2-0-10,0543_eid_dnn_2-0-10_oven_10_n04111531_21382.png
dino_v8,1,544,NaN,cat,cat,1-0-10,0544_eid_dnn_1-0-10_cat_10_n02123597_2009.png
dino_v8,1,545,NaN,dog,oven,32-0-10,0545_eid_dnn_32-0-10_oven_10_n04111531_4392.png
dino_v8,1,546,NaN,bottle,boat,4-0-10,0546_eid_dnn_4-0-10_boat_10_n03344393_640.png
dino_v8,1,547,NaN,bottle,car,4-0-10,0547_eid_dnn_4-0-10_car_10_n02814533_245.png
dino_v8,1,548,NaN,bird,bird,1-0-10,0548_eid_dnn_1-0-10_bird_10_n01530575_3831.png
dino_v8,1,549,NaN,truck,truck,2-0-10,0549_eid_dnn_2-0-10_truck_10_n04467665_32276.png
dino_v8,1,550,NaN,cat,elephant,64-0-10,0550_eid_dnn_64-0-10_elephant_10_n02504458_5941.png
dino_v8,1,551,NaN,elephant,elephant,4-0-10,0551_eid_dnn_4-0-10_elephant_10_n02504013_9796.png
dino_v8,1,552,NaN,airplane,airplane,4-0-10,0552_eid_dnn_4-0-10_airplane_10_n02690373_8214.png
dino_v8,1,553,NaN,airplane,airplane,1-0-10,0553_eid_dnn_1-0-10_airplane_10_n02690373_8967.png
dino_v8,1,554,NaN,cat,elephant,64-0-10,0554_eid_dnn_64-0-10_elephant_10_n02504458_7642.png
dino_v8,1,555,NaN,boat,boat,1-0-10,0555_eid_dnn_1-0-10_boat_10_n04273569_15455.png
dino_v8,1,556,NaN,elephant,knife,8-0-10,0556_eid_dnn_8-0-10_knife_10_n03041632_3063.png
dino_v8,1,557,NaN,knife,bottle,4-0-10,0557_eid_dnn_4-0-10_bottle_10_n03937543_4912.png
dino_v8,1,558,NaN,oven,oven,4-0-10,0558_eid_dnn_4-0-10_oven_10_n04111531_5776.png
dino_v8,1,559,NaN,cat,bottle,128-0-10,0559_eid_dnn_128-0-10_bottle_10_n03983396_4540.png
dino_v8,1,560,NaN,knife,knife,2-0-10,0560_eid_dnn_2-0-10_knife_10_n03041632_965.png
dino_v8,1,561,NaN,cat,knife,32-0-10,0561_eid_dnn_32-0-10_knife_10_n03041632_12949.png
dino_v8,1,562,NaN,elephant,knife,16-0-10,0562_eid_dnn_16-0-10_knife_10_n03041632_18766.png
dino_v8,1,563,NaN,keyboard,keyboard,8-0-10,0563_eid_dnn_8-0-10_keyboard_10_n04505470_2869.png
dino_v8,1,564,NaN,bicycle,bicycle,4-0-10,0564_eid_dnn_4-0-10_bicycle_10_n02835271_18537.png
dino_v8,1,565,NaN,dog,clock,32-0-10,0565_eid_dnn_32-0-10_clock_10_n04548280_1119.png
dino_v8,1,566,NaN,oven,oven,1-0-10,0566_eid_dnn_1-0-10_oven_10_n04111531_687.png
dino_v8,1,567,NaN,dog,chair,64-0-10,0567_eid_dnn_64-0-10_chair_10_n03376595_3038.png
dino_v8,1,568,NaN,dog,bicycle,16-0-10,0568_eid_dnn_16-0-10_bicycle_10_n02835271_3989.png
dino_v8,1,569,NaN,dog,dog,64-0-10,0569_eid_dnn_64-0-10_dog_10_n02096437_4563.png
dino_v8,1,570,NaN,cat,clock,32-0-10,0570_eid_dnn_32-0-10_clock_10_n02708093_685.png
dino_v8,1,571,NaN,dog,boat,32-0-10,0571_eid_dnn_32-0-10_boat_10_n03662601_8360.png
dino_v8,1,572,NaN,chair,keyboard,8-0-10,0572_eid_dnn_8-0-10_keyboard_10_n03085013_17035.png
dino_v8,1,573,NaN,cat,dog,64-0-10,0573_eid_dnn_64-0-10_dog_10_n02110063_12166.png
dino_v8,1,574,NaN,dog,dog,2-0-10,0574_eid_dnn_2-0-10_dog_10_n02108422_6951.png
dino_v8,1,575,NaN,dog,bear,64-0-10,0575_eid_dnn_64-0-10_bear_10_n02134418_912.png
dino_v8,1,576,NaN,clock,clock,4-0-10,0576_eid_dnn_4-0-10_clock_10_n02708093_564.png
dino_v8,1,577,NaN,dog,car,64-0-10,0577_eid_dnn_64-0-10_car_10_n04285008_11893.png
dino_v8,1,578,NaN,bird,knife,64-0-10,0578_eid_dnn_64-0-10_knife_10_n03041632_20504.png
dino_v8,1,579,NaN,clock,clock,4-0-10,0579_eid_dnn_4-0-10_clock_10_n04548280_4557.png
dino_v8,1,580,NaN,dog,clock,32-0-10,0580_eid_dnn_32-0-10_clock_10_n02708093_3360.png
dino_v8,1,581,NaN,dog,bear,16-0-10,0581_eid_dnn_16-0-10_bear_10_n02134084_617.png
dino_v8,1,582,NaN,dog,dog,1-0-10,0582_eid_dnn_1-0-10_dog_10_n02093991_4081.png
dino_v8,1,583,NaN,dog,elephant,16-0-10,0583_eid_dnn_16-0-10_elephant_10_n02504458_1727.png
dino_v8,1,584,NaN,dog,clock,32-0-10,0584_eid_dnn_32-0-10_clock_10_n04548280_16295.png
dino_v8,1,585,NaN,elephant,boat,4-0-10,0585_eid_dnn_4-0-10_boat_10_n02951358_16217.png
dino_v8,1,586,NaN,airplane,airplane,8-0-10,0586_eid_dnn_8-0-10_airplane_10_n02690373_7536.png
dino_v8,1,587,NaN,cat,cat,8-0-10,0587_eid_dnn_8-0-10_cat_10_n02123597_22140.png
dino_v8,1,588,NaN,dog,bottle,128-0-10,0588_eid_dnn_128-0-10_bottle_10_n04591713_8914.png
dino_v8,1,589,NaN,dog,car,128-0-10,0589_eid_dnn_128-0-10_car_10_n03100240_963.png
dino_v8,1,590,NaN,dog,boat,32-0-10,0590_eid_dnn_32-0-10_boat_10_n02951358_18762.png
dino_v8,1,591,NaN,dog,bear,32-0-10,0591_eid_dnn_32-0-10_bear_10_n02134418_2633.png
dino_v8,1,592,NaN,dog,airplane,64-0-10,0592_eid_dnn_64-0-10_airplane_10_n02690373_1169.png
dino_v8,1,593,NaN,bicycle,bicycle,2-0-10,0593_eid_dnn_2-0-10_bicycle_10_n03792782_12704.png
dino_v8,1,594,NaN,dog,dog,64-0-10,0594_eid_dnn_64-0-10_dog_10_n02088238_2973.png
dino_v8,1,595,NaN,dog,knife,32-0-10,0595_eid_dnn_32-0-10_knife_10_n03041632_41493.png
dino_v8,1,596,NaN,dog,bottle,128-0-10,0596_eid_dnn_128-0-10_bottle_10_n03983396_2959.png
dino_v8,1,597,NaN,clock,clock,1-0-10,0597_eid_dnn_1-0-10_clock_10_n02708093_2843.png
dino_v8,1,598,NaN,dog,oven,8-0-10,0598_eid_dnn_8-0-10_oven_10_n04111531_12952.png
dino_v8,1,599,NaN,elephant,bear,16-0-10,0599_eid_dnn_16-0-10_bear_10_n02134418_2891.png
dino_v8,1,600,NaN,dog,truck,32-0-10,0600_eid_dnn_32-0-10_truck_10_n03417042_3862.png
dino_v8,1,601,NaN,dog,elephant,16-0-10,0601_eid_dnn_16-0-10_elephant_10_n02504458_2054.png
dino_v8,1,602,NaN,airplane,airplane,1-0-10,0602_eid_dnn_1-0-10_airplane_10_n02690373_7355.png
dino_v8,1,603,NaN,cat,knife,128-0-10,0603_eid_dnn_128-0-10_knife_10_n03041632_22738.png
dino_v8,1,604,NaN,oven,oven,1-0-10,0604_eid_dnn_1-0-10_oven_10_n04111531_4250.png
dino_v8,1,605,NaN,dog,clock,8-0-10,0605_eid_dnn_8-0-10_clock_10_n04548280_7826.png
dino_v8,1,606,NaN,dog,clock,64-0-10,0606_eid_dnn_64-0-10_clock_10_n04548280_17198.png
dino_v8,1,607,NaN,cat,bicycle,128-0-10,0607_eid_dnn_128-0-10_bicycle_10_n02835271_4726.png
dino_v8,1,608,NaN,cat,chair,128-0-10,0608_eid_dnn_128-0-10_chair_10_n03376595_9079.png
dino_v8,1,609,NaN,airplane,airplane,4-0-10,0609_eid_dnn_4-0-10_airplane_10_n02690373_2324.png
dino_v8,1,610,NaN,dog,dog,64-0-10,0610_eid_dnn_64-0-10_dog_10_n02104029_5234.png
dino_v8,1,611,NaN,bottle,bottle,2-0-10,0611_eid_dnn_2-0-10_bottle_10_n04591713_335.png
dino_v8,1,612,NaN,airplane,airplane,2-0-10,0612_eid_dnn_2-0-10_airplane_10_n02690373_4148.png
dino_v8,1,613,NaN,bear,bear,2-0-10,0613_eid_dnn_2-0-10_bear_10_n02134084_18800.png
dino_v8,1,614,NaN,dog,boat,16-0-10,0614_eid_dnn_16-0-10_boat_10_n03662601_1191.png
dino_v8,1,615,NaN,keyboard,keyboard,2-0-10,0615_eid_dnn_2-0-10_keyboard_10_n04505470_4505.png
dino_v8,1,616,NaN,knife,knife,4-0-10,0616_eid_dnn_4-0-10_knife_10_n03041632_1607.png
dino_v8,1,617,NaN,dog,car,32-0-10,0617_eid_dnn_32-0-10_car_10_n03100240_11224.png
dino_v8,1,618,NaN,dog,airplane,128-0-10,0618_eid_dnn_128-0-10_airplane_10_n02690373_7142.png
dino_v8,1,619,NaN,airplane,airplane,4-0-10,0619_eid_dnn_4-0-10_airplane_10_n02690373_18693.png
dino_v8,1,620,NaN,elephant,chair,8-0-10,0620_eid_dnn_8-0-10_chair_10_n03376595_3214.png
dino_v8,1,621,NaN,bird,boat,16-0-10,0621_eid_dnn_16-0-10_boat_10_n03662601_17198.png
dino_v8,1,622,NaN,bird,knife,32-0-10,0622_eid_dnn_32-0-10_knife_10_n03041632_27879.png
dino_v8,1,623,NaN,chair,chair,1-0-10,0623_eid_dnn_1-0-10_chair_10_n02791124_3601.png
dino_v8,1,624,NaN,elephant,bicycle,16-0-10,0624_eid_dnn_16-0-10_bicycle_10_n03792782_10876.png
dino_v8,1,625,NaN,bottle,clock,4-0-10,0625_eid_dnn_4-0-10_clock_10_n03196217_5568.png
dino_v8,1,626,NaN,dog,truck,16-0-10,0626_eid_dnn_16-0-10_truck_10_n04467665_2695.png
dino_v8,1,627,NaN,elephant,elephant,8-0-10,0627_eid_dnn_8-0-10_elephant_10_n02504013_4005.png
dino_v8,1,628,NaN,cat,elephant,128-0-10,0628_eid_dnn_128-0-10_elephant_10_n02504458_3094.png
dino_v8,1,629,NaN,elephant,bear,8-0-10,0629_eid_dnn_8-0-10_bear_10_n02134418_6133.png
dino_v8,1,630,NaN,dog,truck,128-0-10,0630_eid_dnn_128-0-10_truck_10_n03796401_9953.png
dino_v8,1,631,NaN,cat,cat,8-0-10,0631_eid_dnn_8-0-10_cat_10_n02123597_10199.png
dino_v8,1,632,NaN,cat,cat,2-0-10,0632_eid_dnn_2-0-10_cat_10_n02124075_11153.png
dino_v8,1,633,NaN,cat,bicycle,64-0-10,0633_eid_dnn_64-0-10_bicycle_10_n02835271_7900.png
dino_v8,1,634,NaN,knife,knife,4-0-10,0634_eid_dnn_4-0-10_knife_10_n03041632_12748.png
dino_v8,1,635,NaN,cat,bear,16-0-10,0635_eid_dnn_16-0-10_bear_10_n02134418_244.png
dino_v8,1,636,NaN,bicycle,bicycle,4-0-10,0636_eid_dnn_4-0-10_bicycle_10_n03792782_22908.png
dino_v8,1,637,NaN,cat,elephant,8-0-10,0637_eid_dnn_8-0-10_elephant_10_n02504458_3234.png
dino_v8,1,638,NaN,clock,clock,1-0-10,0638_eid_dnn_1-0-10_clock_10_n03196217_3063.png
dino_v8,1,639,NaN,clock,clock,4-0-10,0639_eid_dnn_4-0-10_clock_10_n03196217_5688.png
dino_v8,1,640,NaN,bottle,bottle,2-0-10,0640_eid_dnn_2-0-10_bottle_10_n04591713_2123.png
dino_v8,1,641,NaN,knife,knife,2-0-10,0641_eid_dnn_2-0-10_knife_10_n03041632_13424.png
dino_v8,1,642,NaN,cat,chair,64-0-10,0642_eid_dnn_64-0-10_chair_10_n03376595_989.png
dino_v8,1,643,NaN,elephant,elephant,8-0-10,0643_eid_dnn_8-0-10_elephant_10_n02504458_3953.png
dino_v8,1,644,NaN,bird,bird,4-0-10,0644_eid_dnn_4-0-10_bird_10_n01796340_4181.png
dino_v8,1,645,NaN,bicycle,bicycle,1-0-10,0645_eid_dnn_1-0-10_bicycle_10_n02835271_17357.png
dino_v8,1,646,NaN,bird,bird,1-0-10,0646_eid_dnn_1-0-10_bird_10_n02006656_9134.png
dino_v8,1,647,NaN,clock,bear,64-0-10,0647_eid_dnn_64-0-10_bear_10_n02134418_1307.png
dino_v8,1,648,NaN,dog,chair,64-0-10,0648_eid_dnn_64-0-10_chair_10_n02791124_4432.png
dino_v8,1,649,NaN,cat,oven,32-0-10,0649_eid_dnn_32-0-10_oven_10_n04111531_21309.png
dino_v8,1,650,NaN,dog,car,16-0-10,0650_eid_dnn_16-0-10_car_10_n04285008_6325.png
dino_v8,1,651,NaN,bird,boat,32-0-10,0651_eid_dnn_32-0-10_boat_10_n03344393_5599.png
dino_v8,1,652,NaN,dog,cat,32-0-10,0652_eid_dnn_32-0-10_cat_10_n02123159_7616.png
dino_v8,1,653,NaN,car,car,4-0-10,0653_eid_dnn_4-0-10_car_10_n02814533_11273.png
dino_v8,1,654,NaN,oven,oven,1-0-10,0654_eid_dnn_1-0-10_oven_10_n04111531_5357.png
dino_v8,1,655,NaN,airplane,truck,4-0-10,0655_eid_dnn_4-0-10_truck_10_n04467665_68250.png
dino_v8,1,656,NaN,dog,dog,2-0-10,0656_eid_dnn_2-0-10_dog_10_n02102177_3185.png
dino_v8,1,657,NaN,elephant,truck,8-0-10,0657_eid_dnn_8-0-10_truck_10_n03417042_11439.png
dino_v8,1,658,NaN,keyboard,keyboard,8-0-10,0658_eid_dnn_8-0-10_keyboard_10_n04505470_4776.png
dino_v8,1,659,NaN,elephant,chair,1-0-10,0659_eid_dnn_1-0-10_chair_10_n04099969_4675.png
dino_v8,1,660,NaN,dog,chair,16-0-10,0660_eid_dnn_16-0-10_chair_10_n02791124_14.png
dino_v8,1,661,NaN,dog,dog,1-0-10,0661_eid_dnn_1-0-10_dog_10_n02086646_5896.png
dino_v8,1,662,NaN,bottle,truck,16-0-10,0662_eid_dnn_16-0-10_truck_10_n03796401_7421.png
dino_v8,1,663,NaN,dog,keyboard,128-0-10,0663_eid_dnn_128-0-10_keyboard_10_n04505470_713.png
dino_v8,1,664,NaN,cat,clock,64-0-10,0664_eid_dnn_64-0-10_clock_10_n04548280_1324.png
dino_v8,1,665,NaN,bottle,bottle,8-0-10,0665_eid_dnn_8-0-10_bottle_10_n04591713_4474.png
dino_v8,1,666,NaN,elephant,bird,16-0-10,0666_eid_dnn_16-0-10_bird_10_n01855672_4659.png
dino_v8,1,667,NaN,keyboard,keyboard,1-0-10,0667_eid_dnn_1-0-10_keyboard_10_n03085013_8677.png
dino_v8,1,668,NaN,bear,bear,2-0-10,0668_eid_dnn_2-0-10_bear_10_n02134418_3584.png
dino_v8,1,669,NaN,airplane,airplane,4-0-10,0669_eid_dnn_4-0-10_airplane_10_n02690373_4061.png
dino_v8,1,670,NaN,cat,bear,4-0-10,0670_eid_dnn_4-0-10_bear_10_n02133161_499.png
dino_v8,1,671,NaN,chair,chair,2-0-10,0671_eid_dnn_2-0-10_chair_10_n03376595_3462.png
dino_v8,1,672,NaN,boat,boat,4-0-10,0672_eid_dnn_4-0-10_boat_10_n04273569_16362.png
dino_v8,1,673,NaN,airplane,airplane,1-0-10,0673_eid_dnn_1-0-10_airplane_10_n02690373_8592.png
dino_v8,1,674,NaN,dog,chair,32-0-10,0674_eid_dnn_32-0-10_chair_10_n04099969_6217.png
dino_v8,1,675,NaN,bottle,bottle,1-0-10,0675_eid_dnn_1-0-10_bottle_10_n03937543_299.png
dino_v8,1,676,NaN,clock,clock,2-0-10,0676_eid_dnn_2-0-10_clock_10_n03196217_300.png
dino_v8,1,677,NaN,clock,bear,32-0-10,0677_eid_dnn_32-0-10_bear_10_n02132136_8516.png
dino_v8,1,678,NaN,bottle,bottle,4-0-10,0678_eid_dnn_4-0-10_bottle_10_n04557648_1938.png
dino_v8,1,679,NaN,airplane,airplane,16-0-10,0679_eid_dnn_16-0-10_airplane_10_n02690373_19118.png
dino_v8,1,680,NaN,cat,oven,128-0-10,0680_eid_dnn_128-0-10_oven_10_n04111531_891.png
dino_v8,1,681,NaN,elephant,elephant,2-0-10,0681_eid_dnn_2-0-10_elephant_10_n02504458_37.png
dino_v8,1,682,NaN,chair,chair,2-0-10,0682_eid_dnn_2-0-10_chair_10_n04429376_24375.png
dino_v8,1,683,NaN,clock,knife,64-0-10,0683_eid_dnn_64-0-10_knife_10_n03041632_46914.png
dino_v8,1,684,NaN,truck,truck,2-0-10,0684_eid_dnn_2-0-10_truck_10_n04467665_78325.png
dino_v8,1,685,NaN,elephant,elephant,8-0-10,0685_eid_dnn_8-0-10_elephant_10_n02504013_2438.png
dino_v8,1,686,NaN,elephant,boat,4-0-10,0686_eid_dnn_4-0-10_boat_10_n02951358_13456.png
dino_v8,1,687,NaN,knife,keyboard,32-0-10,0687_eid_dnn_32-0-10_keyboard_10_n04505470_4922.png
dino_v8,1,688,NaN,boat,boat,2-0-10,0688_eid_dnn_2-0-10_boat_10_n02951358_4363.png
dino_v8,1,689,NaN,keyboard,keyboard,2-0-10,0689_eid_dnn_2-0-10_keyboard_10_n03085013_28083.png
dino_v8,1,690,NaN,chair,chair,2-0-10,0690_eid_dnn_2-0-10_chair_10_n02791124_17035.png
dino_v8,1,691,NaN,bear,bird,4-0-10,0691_eid_dnn_4-0-10_bird_10_n02028035_32557.png
dino_v8,1,692,NaN,cat,bicycle,128-0-10,0692_eid_dnn_128-0-10_bicycle_10_n02835271_3298.png
dino_v8,1,693,NaN,elephant,boat,8-0-10,0693_eid_dnn_8-0-10_boat_10_n02951358_15422.png
dino_v8,1,694,NaN,cat,cat,1-0-10,0694_eid_dnn_1-0-10_cat_10_n02123597_3398.png
dino_v8,1,695,NaN,boat,boat,4-0-10,0695_eid_dnn_4-0-10_boat_10_n02951358_2330.png
dino_v8,1,696,NaN,elephant,airplane,128-0-10,0696_eid_dnn_128-0-10_airplane_10_n02690373_6929.png
dino_v8,1,697,NaN,bottle,bottle,8-0-10,0697_eid_dnn_8-0-10_bottle_10_n04560804_16054.png
dino_v8,1,698,NaN,cat,knife,128-0-10,0698_eid_dnn_128-0-10_knife_10_n03041632_2438.png
dino_v8,1,699,NaN,bird,bird,2-0-10,0699_eid_dnn_2-0-10_bird_10_n02056570_9511.png
dino_v8,1,700,NaN,cat,elephant,128-0-10,0700_eid_dnn_128-0-10_elephant_10_n02504013_9809.png
dino_v8,1,701,NaN,dog,cat,32-0-10,0701_eid_dnn_32-0-10_cat_10_n02123394_4167.png
dino_v8,1,702,NaN,clock,dog,128-0-10,0702_eid_dnn_128-0-10_dog_10_n02101556_1042.png
dino_v8,1,703,NaN,cat,elephant,64-0-10,0703_eid_dnn_64-0-10_elephant_10_n02504013_10765.png
dino_v8,1,704,NaN,airplane,airplane,1-0-10,0704_eid_dnn_1-0-10_airplane_10_n02690373_8653.png
dino_v8,1,705,NaN,dog,elephant,16-0-10,0705_eid_dnn_16-0-10_elephant_10_n02504013_3172.png
dino_v8,1,706,NaN,elephant,truck,8-0-10,0706_eid_dnn_8-0-10_truck_10_n04467665_21900.png
dino_v8,1,707,NaN,clock,knife,32-0-10,0707_eid_dnn_32-0-10_knife_10_n03041632_13225.png
dino_v8,1,708,NaN,cat,cat,8-0-10,0708_eid_dnn_8-0-10_cat_10_n02123045_964.png
dino_v8,1,709,NaN,dog,elephant,16-0-10,0709_eid_dnn_16-0-10_elephant_10_n02504458_151.png
dino_v8,1,710,NaN,bicycle,bicycle,2-0-10,0710_eid_dnn_2-0-10_bicycle_10_n03792782_1933.png
dino_v8,1,711,NaN,keyboard,keyboard,2-0-10,0711_eid_dnn_2-0-10_keyboard_10_n03085013_4636.png
dino_v8,1,712,NaN,bird,truck,32-0-10,0712_eid_dnn_32-0-10_truck_10_n04467665_62439.png
dino_v8,1,713,NaN,dog,bear,128-0-10,0713_eid_dnn_128-0-10_bear_10_n02134084_2516.png
dino_v8,1,714,NaN,bird,bottle,16-0-10,0714_eid_dnn_16-0-10_bottle_10_n04560804_30659.png
dino_v8,1,715,NaN,dog,chair,16-0-10,0715_eid_dnn_16-0-10_chair_10_n03376595_3130.png
dino_v8,1,716,NaN,dog,cat,32-0-10,0716_eid_dnn_32-0-10_cat_10_n02123045_7764.png
dino_v8,1,717,NaN,keyboard,keyboard,2-0-10,0717_eid_dnn_2-0-10_keyboard_10_n04505470_568.png
dino_v8,1,718,NaN,bear,bear,1-0-10,0718_eid_dnn_1-0-10_bear_10_n02134418_4177.png
dino_v8,1,719,NaN,dog,airplane,64-0-10,0719_eid_dnn_64-0-10_airplane_10_n02690373_3617.png
dino_v8,1,720,NaN,dog,boat,8-0-10,0720_eid_dnn_8-0-10_boat_10_n03662601_33374.png
dino_v8,1,721,NaN,dog,dog,1-0-10,0721_eid_dnn_1-0-10_dog_10_n02109047_26316.png
dino_v8,1,722,NaN,truck,boat,4-0-10,0722_eid_dnn_4-0-10_boat_10_n03344393_3824.png
dino_v8,1,723,NaN,bicycle,bicycle,1-0-10,0723_eid_dnn_1-0-10_bicycle_10_n02835271_17184.png
dino_v8,1,724,NaN,dog,chair,128-0-10,0724_eid_dnn_128-0-10_chair_10_n02791124_3671.png
dino_v8,1,725,NaN,dog,clock,8-0-10,0725_eid_dnn_8-0-10_clock_10_n03196217_911.png
dino_v8,1,726,NaN,knife,knife,1-0-10,0726_eid_dnn_1-0-10_knife_10_n03041632_26314.png
dino_v8,1,727,NaN,cat,dog,32-0-10,0727_eid_dnn_32-0-10_dog_10_n02088238_4028.png
dino_v8,1,728,NaN,clock,chair,64-0-10,0728_eid_dnn_64-0-10_chair_10_n03376595_3015.png
dino_v8,1,729,NaN,boat,boat,4-0-10,0729_eid_dnn_4-0-10_boat_10_n04612504_21132.png
dino_v8,1,730,NaN,bottle,bottle,2-0-10,0730_eid_dnn_2-0-10_bottle_10_n04591713_6351.png
dino_v8,1,731,NaN,dog,keyboard,128-0-10,0731_eid_dnn_128-0-10_keyboard_10_n03085013_21645.png
dino_v8,1,732,NaN,dog,bicycle,16-0-10,0732_eid_dnn_16-0-10_bicycle_10_n03792782_11995.png
dino_v8,1,733,NaN,truck,truck,4-0-10,0733_eid_dnn_4-0-10_truck_10_n03417042_16238.png
dino_v8,1,734,NaN,dog,airplane,32-0-10,0734_eid_dnn_32-0-10_airplane_10_n02690373_1611.png
dino_v8,1,735,NaN,chair,chair,2-0-10,0735_eid_dnn_2-0-10_chair_10_n02791124_11523.png
dino_v8,1,736,NaN,dog,oven,128-0-10,0736_eid_dnn_128-0-10_oven_10_n04111531_12129.png
dino_v8,1,737,NaN,chair,chair,1-0-10,0737_eid_dnn_1-0-10_chair_10_n03376595_13578.png
dino_v8,1,738,NaN,dog,oven,64-0-10,0738_eid_dnn_64-0-10_oven_10_n04111531_136.png
dino_v8,1,739,NaN,dog,truck,64-0-10,0739_eid_dnn_64-0-10_truck_10_n03417042_26814.png
dino_v8,1,740,NaN,dog,oven,128-0-10,0740_eid_dnn_128-0-10_oven_10_n04111531_4795.png
dino_v8,1,741,NaN,dog,car,32-0-10,0741_eid_dnn_32-0-10_car_10_n04285008_5869.png
dino_v8,1,742,NaN,dog,knife,64-0-10,0742_eid_dnn_64-0-10_knife_10_n03041632_21425.png
dino_v8,1,743,NaN,boat,boat,1-0-10,0743_eid_dnn_1-0-10_boat_10_n03344393_2301.png
dino_v8,1,744,NaN,oven,oven,2-0-10,0744_eid_dnn_2-0-10_oven_10_n04111531_10476.png
dino_v8,1,745,NaN,chair,chair,1-0-10,0745_eid_dnn_1-0-10_chair_10_n03376595_10149.png
dino_v8,1,746,NaN,cat,keyboard,64-0-10,0746_eid_dnn_64-0-10_keyboard_10_n03085013_1483.png
dino_v8,1,747,NaN,cat,bottle,128-0-10,0747_eid_dnn_128-0-10_bottle_10_n04591713_2555.png
dino_v8,1,748,NaN,airplane,airplane,2-0-10,0748_eid_dnn_2-0-10_airplane_10_n02690373_4851.png
dino_v8,1,749,NaN,dog,dog,32-0-10,0749_eid_dnn_32-0-10_dog_10_n02096051_2151.png
dino_v8,1,750,NaN,elephant,elephant,2-0-10,0750_eid_dnn_2-0-10_elephant_10_n02504013_1708.png
dino_v8,1,751,NaN,dog,elephant,32-0-10,0751_eid_dnn_32-0-10_elephant_10_n02504013_7732.png
dino_v8,1,752,NaN,dog,truck,32-0-10,0752_eid_dnn_32-0-10_truck_10_n04467665_9833.png
dino_v8,1,753,NaN,cat,oven,128-0-10,0753_eid_dnn_128-0-10_oven_10_n04111531_5328.png
dino_v8,1,754,NaN,bottle,bottle,2-0-10,0754_eid_dnn_2-0-10_bottle_10_n04557648_954.png
dino_v8,1,755,NaN,dog,elephant,16-0-10,0755_eid_dnn_16-0-10_elephant_10_n02504013_3857.png
dino_v8,1,756,NaN,dog,dog,8-0-10,0756_eid_dnn_8-0-10_dog_10_n02101388_9815.png
dino_v8,1,757,NaN,dog,airplane,128-0-10,0757_eid_dnn_128-0-10_airplane_10_n02690373_5141.png
dino_v8,1,758,NaN,cat,cat,16-0-10,0758_eid_dnn_16-0-10_cat_10_n02123045_6514.png
dino_v8,1,759,NaN,bicycle,bicycle,1-0-10,0759_eid_dnn_1-0-10_bicycle_10_n03792782_12074.png
dino_v8,1,760,NaN,bird,bird,1-0-10,0760_eid_dnn_1-0-10_bird_10_n02027492_5222.png
dino_v8,1,761,NaN,cat,bird,64-0-10,0761_eid_dnn_64-0-10_bird_10_n02013706_5454.png
dino_v8,1,762,NaN,bear,bear,4-0-10,0762_eid_dnn_4-0-10_bear_10_n02133161_10700.png
dino_v8,1,763,NaN,oven,bottle,8-0-10,0763_eid_dnn_8-0-10_bottle_10_n04591713_807.png
dino_v8,1,764,NaN,clock,bird,32-0-10,0764_eid_dnn_32-0-10_bird_10_n02028035_2219.png
dino_v8,1,765,NaN,dog,cat,64-0-10,0765_eid_dnn_64-0-10_cat_10_n02123394_5071.png
dino_v8,1,766,NaN,cat,clock,16-0-10,0766_eid_dnn_16-0-10_clock_10_n02708093_3173.png
dino_v8,1,767,NaN,cat,bird,8-0-10,0767_eid_dnn_8-0-10_bird_10_n02013706_406.png
dino_v8,1,768,NaN,cat,truck,64-0-10,0768_eid_dnn_64-0-10_truck_10_n04467665_23731.png
dino_v8,1,769,NaN,elephant,car,16-0-10,0769_eid_dnn_16-0-10_car_10_n03100240_16803.png
dino_v8,1,770,NaN,dog,knife,128-0-10,0770_eid_dnn_128-0-10_knife_10_n03041632_10999.png
dino_v8,1,771,NaN,dog,dog,16-0-10,0771_eid_dnn_16-0-10_dog_10_n02111129_5833.png
dino_v8,1,772,NaN,dog,keyboard,16-0-10,0772_eid_dnn_16-0-10_keyboard_10_n04505470_3961.png
dino_v8,1,773,NaN,dog,knife,128-0-10,0773_eid_dnn_128-0-10_knife_10_n03041632_33584.png
dino_v8,1,774,NaN,dog,oven,16-0-10,0774_eid_dnn_16-0-10_oven_10_n04111531_5792.png
dino_v8,1,775,NaN,airplane,airplane,4-0-10,0775_eid_dnn_4-0-10_airplane_10_n02690373_6429.png
dino_v8,1,776,NaN,airplane,airplane,1-0-10,0776_eid_dnn_1-0-10_airplane_10_n02690373_3728.png
dino_v8,1,777,NaN,clock,car,64-0-10,0777_eid_dnn_64-0-10_car_10_n02814533_17956.png
dino_v8,1,778,NaN,keyboard,keyboard,4-0-10,0778_eid_dnn_4-0-10_keyboard_10_n04505470_3306.png
dino_v8,1,779,NaN,airplane,airplane,2-0-10,0779_eid_dnn_2-0-10_airplane_10_n02690373_1441.png
dino_v8,1,780,NaN,bottle,car,16-0-10,0780_eid_dnn_16-0-10_car_10_n03100240_7788.png
dino_v8,1,781,NaN,elephant,elephant,1-0-10,0781_eid_dnn_1-0-10_elephant_10_n02504458_4248.png
dino_v8,1,782,NaN,cat,car,128-0-10,0782_eid_dnn_128-0-10_car_10_n02814533_64988.png
dino_v8,1,783,NaN,bear,bear,8-0-10,0783_eid_dnn_8-0-10_bear_10_n02134418_5131.png
dino_v8,1,784,NaN,dog,bear,16-0-10,0784_eid_dnn_16-0-10_bear_10_n02132136_2900.png
dino_v8,1,785,NaN,bear,bear,4-0-10,0785_eid_dnn_4-0-10_bear_10_n02134418_6030.png
dino_v8,1,786,NaN,bear,bear,4-0-10,0786_eid_dnn_4-0-10_bear_10_n02133161_334.png
dino_v8,1,787,NaN,dog,bear,16-0-10,0787_eid_dnn_16-0-10_bear_10_n02132136_2765.png
dino_v8,1,788,NaN,cat,keyboard,128-0-10,0788_eid_dnn_128-0-10_keyboard_10_n03085013_23943.png
dino_v8,1,789,NaN,dog,bird,128-0-10,0789_eid_dnn_128-0-10_bird_10_n02051845_2316.png
dino_v8,1,790,NaN,bear,bear,1-0-10,0790_eid_dnn_1-0-10_bear_10_n02134418_2545.png
dino_v8,1,791,NaN,dog,clock,32-0-10,0791_eid_dnn_32-0-10_clock_10_n02708093_3669.png
dino_v8,1,792,NaN,dog,dog,2-0-10,0792_eid_dnn_2-0-10_dog_10_n02101006_1160.png
dino_v8,1,793,NaN,dog,cat,16-0-10,0793_eid_dnn_16-0-10_cat_10_n02123394_5907.png
dino_v8,1,794,NaN,truck,truck,1-0-10,0794_eid_dnn_1-0-10_truck_10_n04467665_49282.png
dino_v8,1,795,NaN,dog,chair,8-0-10,0795_eid_dnn_8-0-10_chair_10_n04099969_9017.png
dino_v8,1,796,NaN,dog,dog,4-0-10,0796_eid_dnn_4-0-10_dog_10_n02113624_1212.png
dino_v8,1,797,NaN,cat,oven,64-0-10,0797_eid_dnn_64-0-10_oven_10_n04111531_769.png
dino_v8,1,798,NaN,dog,dog,2-0-10,0798_eid_dnn_2-0-10_dog_10_n02090721_5234.png
dino_v8,1,799,NaN,dog,airplane,64-0-10,0799_eid_dnn_64-0-10_airplane_10_n02690373_10012.png
dino_v8,1,800,NaN,cat,oven,128-0-10,0800_eid_dnn_128-0-10_oven_10_n04111531_11221.png
dino_v8,1,801,NaN,oven,oven,4-0-10,0801_eid_dnn_4-0-10_oven_10_n04111531_8046.png
dino_v8,1,802,NaN,clock,clock,1-0-10,0802_eid_dnn_1-0-10_clock_10_n02708093_4267.png
dino_v8,1,803,NaN,airplane,airplane,8-0-10,0803_eid_dnn_8-0-10_airplane_10_n02690373_6836.png
dino_v8,1,804,NaN,cat,cat,1-0-10,0804_eid_dnn_1-0-10_cat_10_n02123159_8039.png
dino_v8,1,805,NaN,dog,bird,128-0-10,0805_eid_dnn_128-0-10_bird_10_n01855032_8576.png
dino_v8,1,806,NaN,clock,clock,1-0-10,0806_eid_dnn_1-0-10_clock_10_n04548280_16233.png
dino_v8,1,807,NaN,bottle,bottle,2-0-10,0807_eid_dnn_2-0-10_bottle_10_n04591713_5406.png
dino_v8,1,808,NaN,cat,keyboard,128-0-10,0808_eid_dnn_128-0-10_keyboard_10_n03085013_23561.png
dino_v8,1,809,NaN,keyboard,keyboard,8-0-10,0809_eid_dnn_8-0-10_keyboard_10_n03085013_5812.png
dino_v8,1,810,NaN,dog,dog,4-0-10,0810_eid_dnn_4-0-10_dog_10_n02101556_9675.png
dino_v8,1,811,NaN,dog,truck,32-0-10,0811_eid_dnn_32-0-10_truck_10_n03417042_2812.png
dino_v8,1,812,NaN,boat,boat,2-0-10,0812_eid_dnn_2-0-10_boat_10_n02951358_16803.png
dino_v8,1,813,NaN,cat,cat,128-0-10,0813_eid_dnn_128-0-10_cat_10_n02125311_35098.png
dino_v8,1,814,NaN,dog,bottle,16-0-10,0814_eid_dnn_16-0-10_bottle_10_n03983396_11597.png
dino_v8,1,815,NaN,elephant,truck,8-0-10,0815_eid_dnn_8-0-10_truck_10_n03417042_16370.png
dino_v8,1,816,NaN,bear,bear,1-0-10,0816_eid_dnn_1-0-10_bear_10_n02133161_4513.png
dino_v8,1,817,NaN,bear,truck,16-0-10,0817_eid_dnn_16-0-10_truck_10_n03417042_4157.png
dino_v8,1,818,NaN,cat,bird,32-0-10,0818_eid_dnn_32-0-10_bird_10_n01829413_8851.png
dino_v8,1,819,NaN,airplane,airplane,4-0-10,0819_eid_dnn_4-0-10_airplane_10_n02690373_9802.png
dino_v8,1,820,NaN,boat,boat,1-0-10,0820_eid_dnn_1-0-10_boat_10_n02951358_30458.png
dino_v8,1,821,NaN,knife,clock,16-0-10,0821_eid_dnn_16-0-10_clock_10_n03196217_5888.png
dino_v8,1,822,NaN,dog,bicycle,8-0-10,0822_eid_dnn_8-0-10_bicycle_10_n02835271_3642.png
dino_v8,1,823,NaN,bottle,boat,8-0-10,0823_eid_dnn_8-0-10_boat_10_n04612504_30603.png
dino_v8,1,824,NaN,dog,boat,32-0-10,0824_eid_dnn_32-0-10_boat_10_n03662601_4558.png
dino_v8,1,825,NaN,clock,bird,128-0-10,0825_eid_dnn_128-0-10_bird_10_n02009229_5290.png
dino_v8,1,826,NaN,dog,clock,32-0-10,0826_eid_dnn_32-0-10_clock_10_n02708093_6982.png
dino_v8,1,827,NaN,truck,truck,1-0-10,0827_eid_dnn_1-0-10_truck_10_n04467665_2797.png
dino_v8,1,828,NaN,bird,bird,1-0-10,0828_eid_dnn_1-0-10_bird_10_n01798484_4934.png
dino_v8,1,829,NaN,dog,oven,16-0-10,0829_eid_dnn_16-0-10_oven_10_n04111531_3805.png
dino_v8,1,830,NaN,elephant,clock,16-0-10,0830_eid_dnn_16-0-10_clock_10_n03196217_5620.png
dino_v8,1,831,NaN,chair,cat,4-0-10,0831_eid_dnn_4-0-10_cat_10_n02123597_2069.png
dino_v8,1,832,NaN,oven,keyboard,4-0-10,0832_eid_dnn_4-0-10_keyboard_10_n04505470_64.png
dino_v8,1,833,NaN,dog,elephant,128-0-10,0833_eid_dnn_128-0-10_elephant_10_n02504458_964.png
dino_v8,1,834,NaN,clock,truck,64-0-10,0834_eid_dnn_64-0-10_truck_10_n03796401_25570.png
dino_v8,1,835,NaN,cat,clock,128-0-10,0835_eid_dnn_128-0-10_clock_10_n04548280_4872.png
dino_v8,1,836,NaN,dog,dog,2-0-10,0836_eid_dnn_2-0-10_dog_10_n02095570_1434.png
dino_v8,1,837,NaN,bicycle,bicycle,1-0-10,0837_eid_dnn_1-0-10_bicycle_10_n03792782_4544.png
dino_v8,1,838,NaN,airplane,airplane,8-0-10,0838_eid_dnn_8-0-10_airplane_10_n02690373_6663.png
dino_v8,1,839,NaN,cat,bottle,64-0-10,0839_eid_dnn_64-0-10_bottle_10_n03983396_14002.png
dino_v8,1,840,NaN,dog,bicycle,128-0-10,0840_eid_dnn_128-0-10_bicycle_10_n02835271_9944.png
dino_v8,1,841,NaN,bottle,chair,8-0-10,0841_eid_dnn_8-0-10_chair_10_n03376595_6589.png
dino_v8,1,842,NaN,dog,airplane,32-0-10,0842_eid_dnn_32-0-10_airplane_10_n02690373_2823.png
dino_v8,1,843,NaN,keyboard,keyboard,1-0-10,0843_eid_dnn_1-0-10_keyboard_10_n03085013_9066.png
dino_v8,1,844,NaN,cat,cat,1-0-10,0844_eid_dnn_1-0-10_cat_10_n02123394_8695.png
dino_v8,1,845,NaN,dog,cat,32-0-10,0845_eid_dnn_32-0-10_cat_10_n02125311_14714.png
dino_v8,1,846,NaN,dog,oven,64-0-10,0846_eid_dnn_64-0-10_oven_10_n04111531_17781.png
dino_v8,1,847,NaN,dog,car,32-0-10,0847_eid_dnn_32-0-10_car_10_n02814533_6498.png
dino_v8,1,848,NaN,oven,boat,8-0-10,0848_eid_dnn_8-0-10_boat_10_n03344393_5322.png
dino_v8,1,849,NaN,knife,knife,2-0-10,0849_eid_dnn_2-0-10_knife_10_n03041632_54191.png
dino_v8,1,850,NaN,dog,bottle,64-0-10,0850_eid_dnn_64-0-10_bottle_10_n03937543_2790.png
dino_v8,1,851,NaN,clock,boat,64-0-10,0851_eid_dnn_64-0-10_boat_10_n04273569_5672.png
dino_v8,1,852,NaN,elephant,elephant,4-0-10,0852_eid_dnn_4-0-10_elephant_10_n02504458_6830.png
dino_v8,1,853,NaN,bird,bird,1-0-10,0853_eid_dnn_1-0-10_bird_10_n01824575_10046.png
dino_v8,1,854,NaN,chair,keyboard,16-0-10,0854_eid_dnn_16-0-10_keyboard_10_n03085013_6643.png
dino_v8,1,855,NaN,cat,bicycle,64-0-10,0855_eid_dnn_64-0-10_bicycle_10_n03792782_59.png
dino_v8,1,856,NaN,dog,chair,8-0-10,0856_eid_dnn_8-0-10_chair_10_n04099969_4816.png
dino_v8,1,857,NaN,car,car,2-0-10,0857_eid_dnn_2-0-10_car_10_n02814533_20712.png
dino_v8,1,858,NaN,bottle,bottle,4-0-10,0858_eid_dnn_4-0-10_bottle_10_n04560804_15122.png
dino_v8,1,859,NaN,knife,clock,4-0-10,0859_eid_dnn_4-0-10_clock_10_n04548280_11681.png
dino_v8,1,860,NaN,elephant,elephant,1-0-10,0860_eid_dnn_1-0-10_elephant_10_n02504013_6287.png
dino_v8,1,861,NaN,boat,boat,2-0-10,0861_eid_dnn_2-0-10_boat_10_n04273569_14363.png
dino_v8,1,862,NaN,elephant,elephant,4-0-10,0862_eid_dnn_4-0-10_elephant_10_n02504013_2033.png
dino_v8,1,863,NaN,elephant,elephant,4-0-10,0863_eid_dnn_4-0-10_elephant_10_n02504013_6897.png
dino_v8,1,864,NaN,cat,knife,128-0-10,0864_eid_dnn_128-0-10_knife_10_n03041632_35260.png
dino_v8,1,865,NaN,bottle,bottle,1-0-10,0865_eid_dnn_1-0-10_bottle_10_n03983396_12916.png
dino_v8,1,866,NaN,bicycle,bicycle,1-0-10,0866_eid_dnn_1-0-10_bicycle_10_n02835271_1530.png
dino_v8,1,867,NaN,car,car,2-0-10,0867_eid_dnn_2-0-10_car_10_n02814533_41478.png
dino_v8,1,868,NaN,cat,keyboard,64-0-10,0868_eid_dnn_64-0-10_keyboard_10_n04505470_3929.png
dino_v8,1,869,NaN,dog,chair,16-0-10,0869_eid_dnn_16-0-10_chair_10_n02791124_6505.png
dino_v8,1,870,NaN,bear,clock,16-0-10,0870_eid_dnn_16-0-10_clock_10_n04548280_1438.png
dino_v8,1,871,NaN,knife,knife,2-0-10,0871_eid_dnn_2-0-10_knife_10_n03041632_22480.png
dino_v8,1,872,NaN,dog,truck,32-0-10,0872_eid_dnn_32-0-10_truck_10_n03417042_16000.png
dino_v8,1,873,NaN,bottle,chair,16-0-10,0873_eid_dnn_16-0-10_chair_10_n04099969_16270.png
dino_v8,1,874,NaN,dog,knife,16-0-10,0874_eid_dnn_16-0-10_knife_10_n03041632_80829.png
dino_v8,1,875,NaN,oven,oven,4-0-10,0875_eid_dnn_4-0-10_oven_10_n04111531_1128.png
dino_v8,1,876,NaN,cat,cat,2-0-10,0876_eid_dnn_2-0-10_cat_10_n02123394_830.png
dino_v8,1,877,NaN,boat,boat,1-0-10,0877_eid_dnn_1-0-10_boat_10_n03344393_1017.png
dino_v8,1,878,NaN,elephant,bear,8-0-10,0878_eid_dnn_8-0-10_bear_10_n02134418_5120.png
dino_v8,1,879,NaN,truck,truck,1-0-10,0879_eid_dnn_1-0-10_truck_10_n04467665_9589.png
dino_v8,1,880,NaN,dog,boat,32-0-10,0880_eid_dnn_32-0-10_boat_10_n04273569_9821.png
dino_v8,1,881,NaN,bottle,clock,128-0-10,0881_eid_dnn_128-0-10_clock_10_n04548280_4346.png
dino_v8,1,882,NaN,dog,bird,16-0-10,0882_eid_dnn_16-0-10_bird_10_n01855032_8095.png
dino_v8,1,883,NaN,bird,knife,32-0-10,0883_eid_dnn_32-0-10_knife_10_n03041632_87380.png
dino_v8,1,884,NaN,dog,bear,128-0-10,0884_eid_dnn_128-0-10_bear_10_n02134084_16227.png
dino_v8,1,885,NaN,cat,cat,8-0-10,0885_eid_dnn_8-0-10_cat_10_n02123045_8751.png
dino_v8,1,886,NaN,dog,chair,64-0-10,0886_eid_dnn_64-0-10_chair_10_n04429376_36848.png
dino_v8,1,887,NaN,bottle,bottle,2-0-10,0887_eid_dnn_2-0-10_bottle_10_n04579145_2346.png
dino_v8,1,888,NaN,truck,truck,4-0-10,0888_eid_dnn_4-0-10_truck_10_n03796401_1791.png
dino_v8,1,889,NaN,bear,bear,4-0-10,0889_eid_dnn_4-0-10_bear_10_n02134084_7079.png
dino_v8,1,890,NaN,dog,cat,128-0-10,0890_eid_dnn_128-0-10_cat_10_n02125311_2981.png
dino_v8,1,891,NaN,airplane,airplane,32-0-10,0891_eid_dnn_32-0-10_airplane_10_n02690373_18845.png
dino_v8,1,892,NaN,cat,oven,128-0-10,0892_eid_dnn_128-0-10_oven_10_n04111531_17045.png
dino_v8,1,893,NaN,airplane,car,16-0-10,0893_eid_dnn_16-0-10_car_10_n04285008_8959.png
dino_v8,1,894,NaN,keyboard,keyboard,1-0-10,0894_eid_dnn_1-0-10_keyboard_10_n03085013_24284.png
dino_v8,1,895,NaN,airplane,airplane,2-0-10,0895_eid_dnn_2-0-10_airplane_10_n02690373_2316.png
dino_v8,1,896,NaN,dog,oven,64-0-10,0896_eid_dnn_64-0-10_oven_10_n04111531_9210.png
dino_v8,1,897,NaN,car,car,2-0-10,0897_eid_dnn_2-0-10_car_10_n03100240_23229.png
dino_v8,1,898,NaN,keyboard,keyboard,1-0-10,0898_eid_dnn_1-0-10_keyboard_10_n04505470_3314.png
dino_v8,1,899,NaN,cat,bottle,128-0-10,0899_eid_dnn_128-0-10_bottle_10_n02823428_7788.png
dino_v8,1,900,NaN,bear,bear,2-0-10,0900_eid_dnn_2-0-10_bear_10_n02134418_18850.png
dino_v8,1,901,NaN,dog,knife,16-0-10,0901_eid_dnn_16-0-10_knife_10_n03041632_992.png
dino_v8,1,902,NaN,elephant,chair,8-0-10,0902_eid_dnn_8-0-10_chair_10_n04429376_17013.png
dino_v8,1,903,NaN,dog,cat,32-0-10,0903_eid_dnn_32-0-10_cat_10_n02123394_1879.png
dino_v8,1,904,NaN,oven,keyboard,8-0-10,0904_eid_dnn_8-0-10_keyboard_10_n03085013_24166.png
dino_v8,1,905,NaN,dog,car,8-0-10,0905_eid_dnn_8-0-10_car_10_n03100240_1140.png
dino_v8,1,906,NaN,bird,boat,32-0-10,0906_eid_dnn_32-0-10_boat_10_n04612504_125.png
dino_v8,1,907,NaN,cat,boat,128-0-10,0907_eid_dnn_128-0-10_boat_10_n03344393_1573.png
dino_v8,1,908,NaN,cat,chair,128-0-10,0908_eid_dnn_128-0-10_chair_10_n02791124_1482.png
dino_v8,1,909,NaN,bird,bird,2-0-10,0909_eid_dnn_2-0-10_bird_10_n01592084_3147.png
dino_v8,1,910,NaN,elephant,bicycle,8-0-10,0910_eid_dnn_8-0-10_bicycle_10_n03792782_14293.png
dino_v8,1,911,NaN,truck,truck,4-0-10,0911_eid_dnn_4-0-10_truck_10_n03417042_26102.png
dino_v8,1,912,NaN,chair,chair,2-0-10,0912_eid_dnn_2-0-10_chair_10_n03376595_6973.png
dino_v8,1,913,NaN,clock,cat,64-0-10,0913_eid_dnn_64-0-10_cat_10_n02123394_292.png
dino_v8,1,914,NaN,airplane,airplane,1-0-10,0914_eid_dnn_1-0-10_airplane_10_n02690373_4136.png
dino_v8,1,915,NaN,bird,bird,2-0-10,0915_eid_dnn_2-0-10_bird_10_n01795545_15255.png
dino_v8,1,916,NaN,chair,chair,1-0-10,0916_eid_dnn_1-0-10_chair_10_n04099969_12537.png
dino_v8,1,917,NaN,dog,bear,32-0-10,0917_eid_dnn_32-0-10_bear_10_n02132136_13078.png
dino_v8,1,918,NaN,bird,bear,32-0-10,0918_eid_dnn_32-0-10_bear_10_n02132136_1738.png
dino_v8,1,919,NaN,airplane,airplane,2-0-10,0919_eid_dnn_2-0-10_airplane_10_n02690373_1706.png
dino_v8,1,920,NaN,dog,bicycle,64-0-10,0920_eid_dnn_64-0-10_bicycle_10_n02835271_7051.png
dino_v8,1,921,NaN,elephant,oven,8-0-10,0921_eid_dnn_8-0-10_oven_10_n04111531_1150.png
dino_v8,1,922,NaN,dog,bear,64-0-10,0922_eid_dnn_64-0-10_bear_10_n02132136_14832.png
dino_v8,1,923,NaN,cat,cat,2-0-10,0923_eid_dnn_2-0-10_cat_10_n02123159_2684.png
dino_v8,1,924,NaN,bear,keyboard,8-0-10,0924_eid_dnn_8-0-10_keyboard_10_n03085013_24217.png
dino_v8,1,925,NaN,airplane,airplane,1-0-10,0925_eid_dnn_1-0-10_airplane_10_n02690373_6739.png
dino_v8,1,926,NaN,dog,oven,128-0-10,0926_eid_dnn_128-0-10_oven_10_n04111531_6622.png
dino_v8,1,927,NaN,bottle,bird,8-0-10,0927_eid_dnn_8-0-10_bird_10_n01514859_7974.png
dino_v8,1,928,NaN,cat,clock,128-0-10,0928_eid_dnn_128-0-10_clock_10_n04548280_23690.png
dino_v8,1,929,NaN,truck,truck,4-0-10,0929_eid_dnn_4-0-10_truck_10_n03417042_14574.png
dino_v8,1,930,NaN,bird,bird,4-0-10,0930_eid_dnn_4-0-10_bird_10_n01592084_7870.png
dino_v8,1,931,NaN,dog,bird,64-0-10,0931_eid_dnn_64-0-10_bird_10_n01843383_6887.png
dino_v8,1,932,NaN,cat,airplane,64-0-10,0932_eid_dnn_64-0-10_airplane_10_n02690373_8543.png
dino_v8,1,933,NaN,dog,chair,128-0-10,0933_eid_dnn_128-0-10_chair_10_n03376595_8409.png
dino_v8,1,934,NaN,bottle,car,8-0-10,0934_eid_dnn_8-0-10_car_10_n02814533_68668.png
dino_v8,1,935,NaN,clock,bear,128-0-10,0935_eid_dnn_128-0-10_bear_10_n02134084_6286.png
dino_v8,1,936,NaN,dog,bicycle,32-0-10,0936_eid_dnn_32-0-10_bicycle_10_n02835271_9482.png
dino_v8,1,937,NaN,dog,keyboard,64-0-10,0937_eid_dnn_64-0-10_keyboard_10_n03085013_20322.png
dino_v8,1,938,NaN,dog,bird,128-0-10,0938_eid_dnn_128-0-10_bird_10_n01843065_958.png
dino_v8,1,939,NaN,cat,boat,128-0-10,0939_eid_dnn_128-0-10_boat_10_n04612504_1889.png
dino_v8,1,940,NaN,airplane,car,32-0-10,0940_eid_dnn_32-0-10_car_10_n04285008_10824.png
dino_v8,1,941,NaN,dog,keyboard,32-0-10,0941_eid_dnn_32-0-10_keyboard_10_n04505470_10596.png
dino_v8,1,942,NaN,dog,chair,64-0-10,0942_eid_dnn_64-0-10_chair_10_n04429376_17336.png
dino_v8,1,943,NaN,cat,truck,128-0-10,0943_eid_dnn_128-0-10_truck_10_n03796401_4898.png
dino_v8,1,944,NaN,bear,bear,1-0-10,0944_eid_dnn_1-0-10_bear_10_n02132136_13556.png
dino_v8,1,945,NaN,dog,bird,32-0-10,0945_eid_dnn_32-0-10_bird_10_n02051845_34393.png
dino_v8,1,946,NaN,dog,dog,1-0-10,0946_eid_dnn_1-0-10_dog_10_n02098286_4560.png
dino_v8,1,947,NaN,cat,bird,16-0-10,0947_eid_dnn_16-0-10_bird_10_n02007558_15130.png
dino_v8,1,948,NaN,dog,elephant,32-0-10,0948_eid_dnn_32-0-10_elephant_10_n02504458_10344.png
dino_v8,1,949,NaN,cat,clock,128-0-10,0949_eid_dnn_128-0-10_clock_10_n03196217_2919.png
dino_v8,1,950,NaN,dog,bear,32-0-10,0950_eid_dnn_32-0-10_bear_10_n02132136_4203.png
dino_v8,1,951,NaN,dog,bird,32-0-10,0951_eid_dnn_32-0-10_bird_10_n01582220_10508.png
dino_v8,1,952,NaN,bicycle,bicycle,1-0-10,0952_eid_dnn_1-0-10_bicycle_10_n03792782_9692.png
dino_v8,1,953,NaN,clock,clock,8-0-10,0953_eid_dnn_8-0-10_clock_10_n03196217_5433.png
dino_v8,1,954,NaN,dog,elephant,64-0-10,0954_eid_dnn_64-0-10_elephant_10_n02504013_6703.png
dino_v8,1,955,NaN,dog,dog,1-0-10,0955_eid_dnn_1-0-10_dog_10_n02093991_8648.png
dino_v8,1,956,NaN,bird,bird,4-0-10,0956_eid_dnn_4-0-10_bird_10_n02033041_7196.png
dino_v8,1,957,NaN,truck,truck,2-0-10,0957_eid_dnn_2-0-10_truck_10_n03796401_26820.png
dino_v8,1,958,NaN,oven,oven,2-0-10,0958_eid_dnn_2-0-10_oven_10_n04111531_12820.png
dino_v8,1,959,NaN,oven,truck,1-0-10,0959_eid_dnn_1-0-10_truck_10_n03417042_3389.png
dino_v8,1,960,NaN,elephant,bicycle,4-0-10,0960_eid_dnn_4-0-10_bicycle_10_n03792782_10366.png
dino_v8,1,961,NaN,bear,bear,8-0-10,0961_eid_dnn_8-0-10_bear_10_n02134084_2598.png
dino_v8,1,962,NaN,keyboard,keyboard,1-0-10,0962_eid_dnn_1-0-10_keyboard_10_n04505470_10697.png
dino_v8,1,963,NaN,clock,truck,64-0-10,0963_eid_dnn_64-0-10_truck_10_n04467665_43222.png
dino_v8,1,964,NaN,bottle,car,8-0-10,0964_eid_dnn_8-0-10_car_10_n04285008_2232.png
dino_v8,1,965,NaN,bicycle,bicycle,2-0-10,0965_eid_dnn_2-0-10_bicycle_10_n03792782_3388.png
dino_v8,1,966,NaN,dog,clock,16-0-10,0966_eid_dnn_16-0-10_clock_10_n03196217_7816.png
dino_v8,1,967,NaN,dog,bottle,128-0-10,0967_eid_dnn_128-0-10_bottle_10_n02823428_3.png
dino_v8,1,968,NaN,cat,dog,128-0-10,0968_eid_dnn_128-0-10_dog_10_n02097130_3615.png
dino_v8,1,969,NaN,dog,elephant,64-0-10,0969_eid_dnn_64-0-10_elephant_10_n02504013_6423.png
dino_v8,1,970,NaN,knife,knife,16-0-10,0970_eid_dnn_16-0-10_knife_10_n03041632_38610.png
dino_v8,1,971,NaN,bird,boat,16-0-10,0971_eid_dnn_16-0-10_boat_10_n03662601_17273.png
dino_v8,1,972,NaN,dog,car,128-0-10,0972_eid_dnn_128-0-10_car_10_n04285008_13702.png
dino_v8,1,973,NaN,clock,clock,1-0-10,0973_eid_dnn_1-0-10_clock_10_n04548280_4989.png
dino_v8,1,974,NaN,bear,bicycle,8-0-10,0974_eid_dnn_8-0-10_bicycle_10_n03792782_46560.png
dino_v8,1,975,NaN,dog,keyboard,16-0-10,0975_eid_dnn_16-0-10_keyboard_10_n04505470_1833.png
dino_v8,1,976,NaN,elephant,truck,16-0-10,0976_eid_dnn_16-0-10_truck_10_n03417042_12328.png
dino_v8,1,977,NaN,cat,oven,128-0-10,0977_eid_dnn_128-0-10_oven_10_n04111531_12450.png
dino_v8,1,978,NaN,cat,airplane,32-0-10,0978_eid_dnn_32-0-10_airplane_10_n02690373_18506.png
dino_v8,1,979,NaN,dog,chair,16-0-10,0979_eid_dnn_16-0-10_chair_10_n03376595_262.png
dino_v8,1,980,NaN,dog,cat,128-0-10,0980_eid_dnn_128-0-10_cat_10_n02123159_5716.png
dino_v8,1,981,NaN,bird,bird,1-0-10,0981_eid_dnn_1-0-10_bird_10_n02009912_2313.png
dino_v8,1,982,NaN,dog,chair,8-0-10,0982_eid_dnn_8-0-10_chair_10_n04099969_3404.png
dino_v8,1,983,NaN,boat,boat,1-0-10,0983_eid_dnn_1-0-10_boat_10_n02951358_9323.png
dino_v8,1,984,NaN,dog,bicycle,4-0-10,0984_eid_dnn_4-0-10_bicycle_10_n03792782_2960.png
dino_v8,1,985,NaN,clock,clock,4-0-10,0985_eid_dnn_4-0-10_clock_10_n04548280_5991.png
dino_v8,1,986,NaN,cat,chair,128-0-10,0986_eid_dnn_128-0-10_chair_10_n02791124_3916.png
dino_v8,1,987,NaN,dog,keyboard,32-0-10,0987_eid_dnn_32-0-10_keyboard_10_n03085013_23566.png
dino_v8,1,988,NaN,elephant,knife,8-0-10,0988_eid_dnn_8-0-10_knife_10_n03041632_38540.png
dino_v8,1,989,NaN,dog,airplane,64-0-10,0989_eid_dnn_64-0-10_airplane_10_n02690373_15472.png
dino_v8,1,990,NaN,bottle,bottle,4-0-10,0990_eid_dnn_4-0-10_bottle_10_n02823428_2754.png
dino_v8,1,991,NaN,dog,keyboard,64-0-10,0991_eid_dnn_64-0-10_keyboard_10_n04505470_3881.png
dino_v8,1,992,NaN,elephant,truck,8-0-10,0992_eid_dnn_8-0-10_truck_10_n03417042_6517.png
dino_v8,1,993,NaN,cat,keyboard,128-0-10,0993_eid_dnn_128-0-10_keyboard_10_n04505470_6.png
dino_v8,1,994,NaN,cat,keyboard,64-0-10,0994_eid_dnn_64-0-10_keyboard_10_n04505470_9113.png
dino_v8,1,995,NaN,dog,bear,8-0-10,0995_eid_dnn_8-0-10_bear_10_n02134084_14992.png
dino_v8,1,996,NaN,dog,elephant,64-0-10,0996_eid_dnn_64-0-10_elephant_10_n02504458_12777.png
dino_v8,1,997,NaN,chair,chair,2-0-10,0997_eid_dnn_2-0-10_chair_10_n02791124_2470.png
dino_v8,1,998,NaN,airplane,airplane,1-0-10,0998_eid_dnn_1-0-10_airplane_10_n02690373_3119.png
dino_v8,1,999,NaN,clock,clock,1-0-10,0999_eid_dnn_1-0-10_clock_10_n04548280_4560.png
dino_v8,1,1000,NaN,dog,bicycle,64-0-10,1000_eid_dnn_64-0-10_bicycle_10_n03792782_14047.png
dino_v8,1,1001,NaN,dog,bottle,32-0-10,1001_eid_dnn_32-0-10_bottle_10_n03983396_10229.png
dino_v8,1,1002,NaN,keyboard,keyboard,4-0-10,1002_eid_dnn_4-0-10_keyboard_10_n03085013_14764.png
dino_v8,1,1003,NaN,dog,truck,32-0-10,1003_eid_dnn_32-0-10_truck_10_n03417042_6033.png
dino_v8,1,1004,NaN,bear,bear,2-0-10,1004_eid_dnn_2-0-10_bear_10_n02134418_2278.png
dino_v8,1,1005,NaN,dog,clock,16-0-10,1005_eid_dnn_16-0-10_clock_10_n04548280_7050.png
dino_v8,1,1006,NaN,dog,dog,1-0-10,1006_eid_dnn_1-0-10_dog_10_n02104365_179.png
dino_v8,1,1007,NaN,dog,elephant,8-0-10,1007_eid_dnn_8-0-10_elephant_10_n02504458_10264.png
dino_v8,1,1008,NaN,dog,bicycle,128-0-10,1008_eid_dnn_128-0-10_bicycle_10_n02835271_7476.png
dino_v8,1,1009,NaN,dog,bicycle,32-0-10,1009_eid_dnn_32-0-10_bicycle_10_n03792782_30246.png
dino_v8,1,1010,NaN,car,car,4-0-10,1010_eid_dnn_4-0-10_car_10_n04285008_13054.png
dino_v8,1,1011,NaN,bottle,car,8-0-10,1011_eid_dnn_8-0-10_car_10_n02814533_37736.png
dino_v8,1,1012,NaN,elephant,elephant,2-0-10,1012_eid_dnn_2-0-10_elephant_10_n02504458_1628.png
dino_v8,1,1013,NaN,knife,knife,4-0-10,1013_eid_dnn_4-0-10_knife_10_n03041632_29580.png
dino_v8,1,1014,NaN,dog,cat,32-0-10,1014_eid_dnn_32-0-10_cat_10_n02123159_799.png
dino_v8,1,1015,NaN,chair,chair,4-0-10,1015_eid_dnn_4-0-10_chair_10_n04429376_9517.png
dino_v8,1,1016,NaN,dog,bird,8-0-10,1016_eid_dnn_8-0-10_bird_10_n01828970_7329.png
dino_v8,1,1017,NaN,clock,clock,2-0-10,1017_eid_dnn_2-0-10_clock_10_n04548280_299.png
dino_v8,1,1018,NaN,elephant,chair,16-0-10,1018_eid_dnn_16-0-10_chair_10_n02791124_3109.png
dino_v8,1,1019,NaN,bear,bird,16-0-10,1019_eid_dnn_16-0-10_bird_10_n01795545_13849.png
dino_v8,1,1020,NaN,bottle,car,8-0-10,1020_eid_dnn_8-0-10_car_10_n03100240_2619.png
dino_v8,1,1021,NaN,truck,truck,4-0-10,1021_eid_dnn_4-0-10_truck_10_n03796401_2893.png
dino_v8,1,1022,NaN,bottle,bottle,1-0-10,1022_eid_dnn_1-0-10_bottle_10_n04560804_433.png
dino_v8,1,1023,NaN,bottle,airplane,4-0-10,1023_eid_dnn_4-0-10_airplane_10_n02690373_9175.png
dino_v8,1,1024,NaN,bird,airplane,32-0-10,1024_eid_dnn_32-0-10_airplane_10_n02690373_6491.png
dino_v8,1,1025,NaN,dog,clock,64-0-10,1025_eid_dnn_64-0-10_clock_10_n02708093_6816.png
dino_v8,1,1026,NaN,oven,oven,1-0-10,1026_eid_dnn_1-0-10_oven_10_n04111531_10749.png
dino_v8,1,1027,NaN,dog,chair,128-0-10,1027_eid_dnn_128-0-10_chair_10_n03376595_8196.png
dino_v8,1,1028,NaN,boat,boat,2-0-10,1028_eid_dnn_2-0-10_boat_10_n04273569_6941.png
dino_v8,1,1029,NaN,dog,keyboard,64-0-10,1029_eid_dnn_64-0-10_keyboard_10_n04505470_4660.png
dino_v8,1,1030,NaN,car,car,1-0-10,1030_eid_dnn_1-0-10_car_10_n04285008_3015.png
dino_v8,1,1031,NaN,cat,clock,128-0-10,1031_eid_dnn_128-0-10_clock_10_n04548280_5466.png
dino_v8,1,1032,NaN,boat,boat,1-0-10,1032_eid_dnn_1-0-10_boat_10_n04273569_29113.png
dino_v8,1,1033,NaN,cat,bird,128-0-10,1033_eid_dnn_128-0-10_bird_10_n01855672_8041.png
dino_v8,1,1034,NaN,chair,chair,1-0-10,1034_eid_dnn_1-0-10_chair_10_n02791124_13477.png
dino_v8,1,1035,NaN,bottle,bottle,2-0-10,1035_eid_dnn_2-0-10_bottle_10_n04557648_21449.png
dino_v8,1,1036,NaN,dog,dog,128-0-10,1036_eid_dnn_128-0-10_dog_10_n02106030_11782.png
dino_v8,1,1037,NaN,cat,truck,32-0-10,1037_eid_dnn_32-0-10_truck_10_n03796401_10784.png
dino_v8,1,1038,NaN,dog,dog,1-0-10,1038_eid_dnn_1-0-10_dog_10_n02097209_5571.png
dino_v8,1,1039,NaN,dog,cat,16-0-10,1039_eid_dnn_16-0-10_cat_10_n02124075_6716.png
dino_v8,1,1040,NaN,clock,elephant,32-0-10,1040_eid_dnn_32-0-10_elephant_10_n02504458_62.png
dino_v8,1,1041,NaN,clock,bear,16-0-10,1041_eid_dnn_16-0-10_bear_10_n02133161_25789.png
dino_v8,1,1042,NaN,dog,dog,8-0-10,1042_eid_dnn_8-0-10_dog_10_n02113712_9172.png
dino_v8,1,1043,NaN,cat,cat,1-0-10,1043_eid_dnn_1-0-10_cat_10_n02124075_12622.png
dino_v8,1,1044,NaN,keyboard,keyboard,1-0-10,1044_eid_dnn_1-0-10_keyboard_10_n04505470_5561.png
dino_v8,1,1045,NaN,oven,oven,2-0-10,1045_eid_dnn_2-0-10_oven_10_n04111531_1815.png
dino_v8,1,1046,NaN,dog,dog,4-0-10,1046_eid_dnn_4-0-10_dog_10_n02102318_15295.png
dino_v8,1,1047,NaN,dog,bicycle,32-0-10,1047_eid_dnn_32-0-10_bicycle_10_n02835271_15524.png
dino_v8,1,1048,NaN,dog,elephant,8-0-10,1048_eid_dnn_8-0-10_elephant_10_n02504458_2841.png
dino_v8,1,1049,NaN,knife,knife,2-0-10,1049_eid_dnn_2-0-10_knife_10_n03041632_84240.png
dino_v8,1,1050,NaN,bicycle,bicycle,2-0-10,1050_eid_dnn_2-0-10_bicycle_10_n02835271_6266.png
dino_v8,1,1051,NaN,dog,oven,16-0-10,1051_eid_dnn_16-0-10_oven_10_n04111531_766.png
dino_v8,1,1052,NaN,cat,oven,64-0-10,1052_eid_dnn_64-0-10_oven_10_n04111531_21855.png
dino_v8,1,1053,NaN,cat,elephant,128-0-10,1053_eid_dnn_128-0-10_elephant_10_n02504013_6903.png
dino_v8,1,1054,NaN,dog,chair,32-0-10,1054_eid_dnn_32-0-10_chair_10_n02791124_624.png
dino_v8,1,1055,NaN,cat,oven,8-0-10,1055_eid_dnn_8-0-10_oven_10_n04111531_13296.png
dino_v8,1,1056,NaN,dog,keyboard,8-0-10,1056_eid_dnn_8-0-10_keyboard_10_n03085013_25066.png
dino_v8,1,1057,NaN,knife,airplane,16-0-10,1057_eid_dnn_16-0-10_airplane_10_n02690373_17044.png
dino_v8,1,1058,NaN,cat,clock,64-0-10,1058_eid_dnn_64-0-10_clock_10_n02708093_2943.png
dino_v8,1,1059,NaN,dog,bird,64-0-10,1059_eid_dnn_64-0-10_bird_10_n01582220_1814.png
dino_v8,1,1060,NaN,bear,bear,4-0-10,1060_eid_dnn_4-0-10_bear_10_n02133161_9098.png
dino_v8,1,1061,NaN,bear,bear,1-0-10,1061_eid_dnn_1-0-10_bear_10_n02134084_887.png
dino_v8,1,1062,NaN,knife,knife,8-0-10,1062_eid_dnn_8-0-10_knife_10_n03041632_26933.png
dino_v8,1,1063,NaN,knife,knife,4-0-10,1063_eid_dnn_4-0-10_knife_10_n03041632_39840.png
dino_v8,1,1064,NaN,cat,cat,8-0-10,1064_eid_dnn_8-0-10_cat_10_n02125311_10230.png
dino_v8,1,1065,NaN,dog,boat,64-0-10,1065_eid_dnn_64-0-10_boat_10_n04273569_14454.png
dino_v8,1,1066,NaN,dog,bird,64-0-10,1066_eid_dnn_64-0-10_bird_10_n02025239_6209.png
dino_v8,1,1067,NaN,car,car,1-0-10,1067_eid_dnn_1-0-10_car_10_n02814533_20611.png
dino_v8,1,1068,NaN,dog,dog,32-0-10,1068_eid_dnn_32-0-10_dog_10_n02108915_8875.png
dino_v8,1,1069,NaN,bottle,chair,64-0-10,1069_eid_dnn_64-0-10_chair_10_n03376595_1770.png
dino_v8,1,1070,NaN,bicycle,bicycle,4-0-10,1070_eid_dnn_4-0-10_bicycle_10_n03792782_42850.png
dino_v8,1,1071,NaN,dog,dog,8-0-10,1071_eid_dnn_8-0-10_dog_10_n02086240_3031.png
dino_v8,1,1072,NaN,bicycle,bicycle,1-0-10,1072_eid_dnn_1-0-10_bicycle_10_n02835271_2570.png
dino_v8,1,1073,NaN,dog,bird,32-0-10,1073_eid_dnn_32-0-10_bird_10_n01532829_3.png
dino_v8,1,1074,NaN,knife,knife,2-0-10,1074_eid_dnn_2-0-10_knife_10_n03041632_28443.png
dino_v8,1,1075,NaN,dog,airplane,8-0-10,1075_eid_dnn_8-0-10_airplane_10_n02690373_19152.png
dino_v8,1,1076,NaN,knife,knife,4-0-10,1076_eid_dnn_4-0-10_knife_10_n03041632_11969.png
dino_v8,1,1077,NaN,bicycle,bicycle,4-0-10,1077_eid_dnn_4-0-10_bicycle_10_n02835271_22334.png
dino_v8,1,1078,NaN,bottle,bottle,8-0-10,1078_eid_dnn_8-0-10_bottle_10_n03983396_5828.png
dino_v8,1,1079,NaN,dog,car,64-0-10,1079_eid_dnn_64-0-10_car_10_n02814533_14484.png
dino_v8,1,1080,NaN,dog,dog,2-0-10,1080_eid_dnn_2-0-10_dog_10_n02106550_7165.png
dino_v8,1,1081,NaN,dog,bicycle,16-0-10,1081_eid_dnn_16-0-10_bicycle_10_n03792782_1778.png
dino_v8,1,1082,NaN,dog,knife,64-0-10,1082_eid_dnn_64-0-10_knife_10_n03041632_1407.png
dino_v8,1,1083,NaN,cat,truck,16-0-10,1083_eid_dnn_16-0-10_truck_10_n04467665_1009.png
dino_v8,1,1084,NaN,dog,boat,128-0-10,1084_eid_dnn_128-0-10_boat_10_n04273569_13641.png
dino_v8,1,1085,NaN,cat,bear,32-0-10,1085_eid_dnn_32-0-10_bear_10_n02133161_1480.png
dino_v8,1,1086,NaN,dog,oven,64-0-10,1086_eid_dnn_64-0-10_oven_10_n04111531_15489.png
dino_v8,1,1087,NaN,cat,bicycle,8-0-10,1087_eid_dnn_8-0-10_bicycle_10_n02835271_42981.png
dino_v8,1,1088,NaN,dog,chair,32-0-10,1088_eid_dnn_32-0-10_chair_10_n04099969_24666.png
dino_v8,1,1089,NaN,bottle,bottle,2-0-10,1089_eid_dnn_2-0-10_bottle_10_n04560804_12010.png
dino_v8,1,1090,NaN,oven,oven,2-0-10,1090_eid_dnn_2-0-10_oven_10_n04111531_1662.png
dino_v8,1,1091,NaN,keyboard,keyboard,4-0-10,1091_eid_dnn_4-0-10_keyboard_10_n04505470_179.png
dino_v8,1,1092,NaN,bird,boat,16-0-10,1092_eid_dnn_16-0-10_boat_10_n03662601_5104.png
dino_v8,1,1093,NaN,dog,knife,64-0-10,1093_eid_dnn_64-0-10_knife_10_n03041632_29862.png
dino_v8,1,1094,NaN,bottle,bottle,8-0-10,1094_eid_dnn_8-0-10_bottle_10_n04579145_2196.png
dino_v8,1,1095,NaN,dog,dog,1-0-10,1095_eid_dnn_1-0-10_dog_10_n02087394_3095.png
dino_v8,1,1096,NaN,dog,car,32-0-10,1096_eid_dnn_32-0-10_car_10_n02814533_58462.png
dino_v8,1,1097,NaN,bottle,bottle,8-0-10,1097_eid_dnn_8-0-10_bottle_10_n03983396_4496.png
dino_v8,1,1098,NaN,bear,bear,2-0-10,1098_eid_dnn_2-0-10_bear_10_n02134084_8503.png
dino_v8,1,1099,NaN,dog,bird,128-0-10,1099_eid_dnn_128-0-10_bird_10_n02025239_1723.png
dino_v8,1,1100,NaN,bottle,bottle,1-0-10,1100_eid_dnn_1-0-10_bottle_10_n04560804_33297.png
dino_v8,1,1101,NaN,dog,bird,32-0-10,1101_eid_dnn_32-0-10_bird_10_n01820546_1135.png
dino_v8,1,1102,NaN,dog,oven,32-0-10,1102_eid_dnn_32-0-10_oven_10_n04111531_7067.png
dino_v8,1,1103,NaN,keyboard,bottle,8-0-10,1103_eid_dnn_8-0-10_bottle_10_n02823428_1153.png
dino_v8,1,1104,NaN,dog,keyboard,32-0-10,1104_eid_dnn_32-0-10_keyboard_10_n04505470_4780.png
dino_v8,1,1105,NaN,chair,chair,1-0-10,1105_eid_dnn_1-0-10_chair_10_n04099969_10825.png
dino_v8,1,1106,NaN,boat,boat,8-0-10,1106_eid_dnn_8-0-10_boat_10_n04273569_694.png
dino_v8,1,1107,NaN,clock,oven,32-0-10,1107_eid_dnn_32-0-10_oven_10_n04111531_9613.png
dino_v8,1,1108,NaN,clock,bottle,64-0-10,1108_eid_dnn_64-0-10_bottle_10_n02823428_12623.png
dino_v8,1,1109,NaN,dog,airplane,32-0-10,1109_eid_dnn_32-0-10_airplane_10_n02690373_2874.png
dino_v8,1,1110,NaN,dog,truck,128-0-10,1110_eid_dnn_128-0-10_truck_10_n04467665_19747.png
dino_v8,1,1111,NaN,cat,dog,128-0-10,1111_eid_dnn_128-0-10_dog_10_n02101006_17876.png
dino_v8,1,1112,NaN,dog,dog,32-0-10,1112_eid_dnn_32-0-10_dog_10_n02097474_8052.png
dino_v8,1,1113,NaN,bicycle,bicycle,2-0-10,1113_eid_dnn_2-0-10_bicycle_10_n02835271_1932.png
dino_v8,1,1114,NaN,airplane,airplane,2-0-10,1114_eid_dnn_2-0-10_airplane_10_n02690373_4064.png
dino_v8,1,1115,NaN,cat,clock,16-0-10,1115_eid_dnn_16-0-10_clock_10_n04548280_5130.png
dino_v8,1,1116,NaN,elephant,truck,8-0-10,1116_eid_dnn_8-0-10_truck_10_n03417042_14381.png
dino_v8,1,1117,NaN,truck,truck,1-0-10,1117_eid_dnn_1-0-10_truck_10_n04467665_70880.png
dino_v8,1,1118,NaN,dog,chair,32-0-10,1118_eid_dnn_32-0-10_chair_10_n02791124_4595.png
dino_v8,1,1119,NaN,keyboard,keyboard,2-0-10,1119_eid_dnn_2-0-10_keyboard_10_n03085013_24159.png
dino_v8,1,1120,NaN,dog,elephant,32-0-10,1120_eid_dnn_32-0-10_elephant_10_n02504013_281.png
dino_v8,1,1121,NaN,dog,bottle,32-0-10,1121_eid_dnn_32-0-10_bottle_10_n04591713_1244.png
dino_v8,1,1122,NaN,cat,boat,128-0-10,1122_eid_dnn_128-0-10_boat_10_n03662601_15713.png
dino_v8,1,1123,NaN,elephant,airplane,8-0-10,1123_eid_dnn_8-0-10_airplane_10_n02690373_4979.png
dino_v8,1,1124,NaN,elephant,cat,16-0-10,1124_eid_dnn_16-0-10_cat_10_n02123394_5726.png
dino_v8,1,1125,NaN,cat,knife,128-0-10,1125_eid_dnn_128-0-10_knife_10_n03041632_9406.png
dino_v8,1,1126,NaN,bottle,bottle,8-0-10,1126_eid_dnn_8-0-10_bottle_10_n04560804_32775.png
dino_v8,1,1127,NaN,cat,boat,8-0-10,1127_eid_dnn_8-0-10_boat_10_n03662601_3903.png
dino_v8,1,1128,NaN,cat,dog,8-0-10,1128_eid_dnn_8-0-10_dog_10_n02098105_865.png
dino_v8,1,1129,NaN,bear,bear,8-0-10,1129_eid_dnn_8-0-10_bear_10_n02132136_4261.png
dino_v8,1,1130,NaN,knife,knife,1-0-10,1130_eid_dnn_1-0-10_knife_10_n03041632_56436.png
dino_v8,1,1131,NaN,dog,elephant,64-0-10,1131_eid_dnn_64-0-10_elephant_10_n02504458_6729.png
dino_v8,1,1132,NaN,cat,chair,128-0-10,1132_eid_dnn_128-0-10_chair_10_n02791124_7759.png
dino_v8,1,1133,NaN,cat,chair,128-0-10,1133_eid_dnn_128-0-10_chair_10_n03376595_13927.png
dino_v8,1,1134,NaN,cat,truck,128-0-10,1134_eid_dnn_128-0-10_truck_10_n04467665_67327.png
dino_v8,1,1135,NaN,dog,airplane,64-0-10,1135_eid_dnn_64-0-10_airplane_10_n02690373_3840.png
dino_v8,1,1136,NaN,dog,dog,2-0-10,1136_eid_dnn_2-0-10_dog_10_n02107908_5222.png
dino_v8,1,1137,NaN,chair,chair,1-0-10,1137_eid_dnn_1-0-10_chair_10_n03376595_2382.png
dino_v8,1,1138,NaN,dog,elephant,128-0-10,1138_eid_dnn_128-0-10_elephant_10_n02504458_2190.png
dino_v8,1,1139,NaN,clock,keyboard,128-0-10,1139_eid_dnn_128-0-10_keyboard_10_n04505470_659.png
dino_v8,1,1140,NaN,truck,truck,2-0-10,1140_eid_dnn_2-0-10_truck_10_n04467665_58500.png
dino_v8,1,1141,NaN,cat,knife,128-0-10,1141_eid_dnn_128-0-10_knife_10_n03041632_29343.png
dino_v8,1,1142,NaN,cat,chair,64-0-10,1142_eid_dnn_64-0-10_chair_10_n04099969_38787.png
dino_v8,1,1143,NaN,elephant,elephant,16-0-10,1143_eid_dnn_16-0-10_elephant_10_n02504458_1327.png
dino_v8,1,1144,NaN,cat,dog,16-0-10,1144_eid_dnn_16-0-10_dog_10_n02090379_7924.png
dino_v8,1,1145,NaN,dog,boat,128-0-10,1145_eid_dnn_128-0-10_boat_10_n02951358_33277.png
