subj,session,trial,rt,object_response,category,condition,imagename
swin_base,1,1,NaN,boat,airplane,NaN,airplane1.png
swin_base,1,2,NaN,boat,airplane,NaN,airplane10.png
swin_base,1,3,NaN,boat,airplane,NaN,airplane2.png
swin_base,1,4,NaN,boat,airplane,NaN,airplane3.png
swin_base,1,5,NaN,bottle,airplane,NaN,airplane4.png
swin_base,1,6,NaN,boat,airplane,NaN,airplane5.png
swin_base,1,7,NaN,boat,airplane,NaN,airplane6.png
swin_base,1,8,NaN,boat,airplane,NaN,airplane7.png
swin_base,1,9,NaN,truck,airplane,NaN,airplane8.png
swin_base,1,10,NaN,bicycle,airplane,NaN,airplane9.png
swin_base,1,11,NaN,dog,bear,NaN,bear1.png
swin_base,1,12,NaN,truck,bear,NaN,bear10.png
swin_base,1,13,NaN,dog,bear,NaN,bear2.png
swin_base,1,14,NaN,dog,bear,NaN,bear3.png
swin_base,1,15,NaN,dog,bear,NaN,bear4.png
swin_base,1,16,NaN,dog,bear,NaN,bear5.png
swin_base,1,17,NaN,truck,bear,NaN,bear6.png
swin_base,1,18,NaN,truck,bear,NaN,bear7.png
swin_base,1,19,NaN,knife,bear,NaN,bear8.png
swin_base,1,20,NaN,dog,bear,NaN,bear9.png
swin_base,1,21,NaN,bird,bicycle,NaN,bicycle1.png
swin_base,1,22,NaN,bird,bicycle,NaN,bicycle10.png
swin_base,1,23,NaN,truck,bicycle,NaN,bicycle2.png
swin_base,1,24,NaN,knife,bicycle,NaN,bicycle3.png
swin_base,1,25,NaN,bird,bicycle,NaN,bicycle4.png
swin_base,1,26,NaN,knife,bicycle,NaN,bicycle5.png
swin_base,1,27,NaN,truck,bicycle,NaN,bicycle6.png
swin_base,1,28,NaN,bird,bicycle,NaN,bicycle7.png
swin_base,1,29,NaN,bird,bicycle,NaN,bicycle8.png
swin_base,1,30,NaN,knife,bicycle,NaN,bicycle9.png
swin_base,1,31,NaN,truck,bird,NaN,bird1.png
swin_base,1,32,NaN,truck,bird,NaN,bird10.png
swin_base,1,33,NaN,car,bird,NaN,bird2.png
swin_base,1,34,NaN,truck,bird,NaN,bird3.png
swin_base,1,35,NaN,truck,bird,NaN,bird4.png
swin_base,1,36,NaN,truck,bird,NaN,bird5.png
swin_base,1,37,NaN,truck,bird,NaN,bird6.png
swin_base,1,38,NaN,car,bird,NaN,bird7.png
swin_base,1,39,NaN,truck,bird,NaN,bird8.png
swin_base,1,40,NaN,truck,bird,NaN,bird9.png
swin_base,1,41,NaN,truck,boat,NaN,boat1.png
swin_base,1,42,NaN,car,boat,NaN,boat10.png
swin_base,1,43,NaN,truck,boat,NaN,boat2.png
swin_base,1,44,NaN,bird,boat,NaN,boat3.png
swin_base,1,45,NaN,bicycle,boat,NaN,boat4.png
swin_base,1,46,NaN,knife,boat,NaN,boat5.png
swin_base,1,47,NaN,clock,boat,NaN,boat6.png
swin_base,1,48,NaN,knife,boat,NaN,boat7.png
swin_base,1,49,NaN,bottle,boat,NaN,boat8.png
swin_base,1,50,NaN,truck,boat,NaN,boat9.png
swin_base,1,51,NaN,truck,bottle,NaN,bottle1.png
swin_base,1,52,NaN,truck,bottle,NaN,bottle10.png
swin_base,1,53,NaN,cat,bottle,NaN,bottle2.png
swin_base,1,54,NaN,knife,bottle,NaN,bottle3.png
swin_base,1,55,NaN,knife,bottle,NaN,bottle4.png
swin_base,1,56,NaN,bear,bottle,NaN,bottle5.png
swin_base,1,57,NaN,car,bottle,NaN,bottle6.png
swin_base,1,58,NaN,knife,bottle,NaN,bottle7.png
swin_base,1,59,NaN,knife,bottle,NaN,bottle8.png
swin_base,1,60,NaN,truck,bottle,NaN,bottle9.png
swin_base,1,61,NaN,knife,car,NaN,car1.png
swin_base,1,62,NaN,bottle,car,NaN,car10.png
swin_base,1,63,NaN,elephant,car,NaN,car2.png
swin_base,1,64,NaN,elephant,car,NaN,car3.png
swin_base,1,65,NaN,bicycle,car,NaN,car4.png
swin_base,1,66,NaN,elephant,car,NaN,car5.png
swin_base,1,67,NaN,knife,car,NaN,car6.png
swin_base,1,68,NaN,truck,car,NaN,car7.png
swin_base,1,69,NaN,truck,car,NaN,car8.png
swin_base,1,70,NaN,bottle,car,NaN,car9.png
swin_base,1,71,NaN,dog,cat,NaN,cat1.png
swin_base,1,72,NaN,truck,cat,NaN,cat10.png
swin_base,1,73,NaN,knife,cat,NaN,cat2.png
swin_base,1,74,NaN,knife,cat,NaN,cat3.png
swin_base,1,75,NaN,truck,cat,NaN,cat4.png
swin_base,1,76,NaN,dog,cat,NaN,cat5.png
swin_base,1,77,NaN,dog,cat,NaN,cat6.png
swin_base,1,78,NaN,dog,cat,NaN,cat7.png
swin_base,1,79,NaN,knife,cat,NaN,cat8.png
swin_base,1,80,NaN,knife,cat,NaN,cat9.png
swin_base,1,81,NaN,bear,chair,NaN,chair1.png
swin_base,1,82,NaN,chair,chair,NaN,chair10.png
swin_base,1,83,NaN,car,chair,NaN,chair2.png
swin_base,1,84,NaN,oven,chair,NaN,chair3.png
swin_base,1,85,NaN,bicycle,chair,NaN,chair4.png
swin_base,1,86,NaN,knife,chair,NaN,chair5.png
swin_base,1,87,NaN,knife,chair,NaN,chair6.png
swin_base,1,88,NaN,chair,chair,NaN,chair7.png
swin_base,1,89,NaN,car,chair,NaN,chair8.png
swin_base,1,90,NaN,car,chair,NaN,chair9.png
swin_base,1,91,NaN,elephant,clock,NaN,clock1.png
swin_base,1,92,NaN,bear,clock,NaN,clock10.png
swin_base,1,93,NaN,cat,clock,NaN,clock2.png
swin_base,1,94,NaN,knife,clock,NaN,clock3.png
swin_base,1,95,NaN,dog,clock,NaN,clock4.png
swin_base,1,96,NaN,dog,clock,NaN,clock5.png
swin_base,1,97,NaN,dog,clock,NaN,clock6.png
swin_base,1,98,NaN,cat,clock,NaN,clock7.png
swin_base,1,99,NaN,car,clock,NaN,clock8.png
swin_base,1,100,NaN,cat,clock,NaN,clock9.png
swin_base,1,101,NaN,dog,dog,NaN,dog1.png
swin_base,1,102,NaN,dog,dog,NaN,dog10.png
swin_base,1,103,NaN,dog,dog,NaN,dog2.png
swin_base,1,104,NaN,dog,dog,NaN,dog3.png
swin_base,1,105,NaN,truck,dog,NaN,dog4.png
swin_base,1,106,NaN,truck,dog,NaN,dog5.png
swin_base,1,107,NaN,dog,dog,NaN,dog6.png
swin_base,1,108,NaN,dog,dog,NaN,dog7.png
swin_base,1,109,NaN,dog,dog,NaN,dog8.png
swin_base,1,110,NaN,bird,dog,NaN,dog9.png
swin_base,1,111,NaN,dog,elephant,NaN,elephant1.png
swin_base,1,112,NaN,truck,elephant,NaN,elephant10.png
swin_base,1,113,NaN,dog,elephant,NaN,elephant2.png
swin_base,1,114,NaN,keyboard,elephant,NaN,elephant3.png
swin_base,1,115,NaN,dog,elephant,NaN,elephant4.png
swin_base,1,116,NaN,dog,elephant,NaN,elephant5.png
swin_base,1,117,NaN,dog,elephant,NaN,elephant6.png
swin_base,1,118,NaN,dog,elephant,NaN,elephant7.png
swin_base,1,119,NaN,knife,elephant,NaN,elephant8.png
swin_base,1,120,NaN,dog,elephant,NaN,elephant9.png
swin_base,1,121,NaN,chair,keyboard,NaN,keyboard1.png
swin_base,1,122,NaN,truck,keyboard,NaN,keyboard10.png
swin_base,1,123,NaN,truck,keyboard,NaN,keyboard2.png
swin_base,1,124,NaN,truck,keyboard,NaN,keyboard3.png
swin_base,1,125,NaN,truck,keyboard,NaN,keyboard4.png
swin_base,1,126,NaN,elephant,keyboard,NaN,keyboard5.png
swin_base,1,127,NaN,truck,keyboard,NaN,keyboard6.png
swin_base,1,128,NaN,truck,keyboard,NaN,keyboard7.png
swin_base,1,129,NaN,clock,keyboard,NaN,keyboard8.png
swin_base,1,130,NaN,elephant,keyboard,NaN,keyboard9.png
swin_base,1,131,NaN,car,knife,NaN,knife1.png
swin_base,1,132,NaN,bird,knife,NaN,knife10.png
swin_base,1,133,NaN,bottle,knife,NaN,knife2.png
swin_base,1,134,NaN,dog,knife,NaN,knife3.png
swin_base,1,135,NaN,truck,knife,NaN,knife4.png
swin_base,1,136,NaN,truck,knife,NaN,knife5.png
swin_base,1,137,NaN,bottle,knife,NaN,knife6.png
swin_base,1,138,NaN,keyboard,knife,NaN,knife7.png
swin_base,1,139,NaN,truck,knife,NaN,knife8.png
swin_base,1,140,NaN,bottle,knife,NaN,knife9.png
swin_base,1,141,NaN,knife,oven,NaN,oven1.png
swin_base,1,142,NaN,truck,oven,NaN,oven10.png
swin_base,1,143,NaN,truck,oven,NaN,oven2.png
swin_base,1,144,NaN,keyboard,oven,NaN,oven3.png
swin_base,1,145,NaN,keyboard,oven,NaN,oven4.png
swin_base,1,146,NaN,boat,oven,NaN,oven5.png
swin_base,1,147,NaN,knife,oven,NaN,oven6.png
swin_base,1,148,NaN,knife,oven,NaN,oven7.png
swin_base,1,149,NaN,bicycle,oven,NaN,oven8.png
swin_base,1,150,NaN,knife,oven,NaN,oven9.png
swin_base,1,151,NaN,elephant,truck,NaN,truck1.png
swin_base,1,152,NaN,truck,truck,NaN,truck10.png
swin_base,1,153,NaN,truck,truck,NaN,truck2.png
swin_base,1,154,NaN,elephant,truck,NaN,truck3.png
swin_base,1,155,NaN,bicycle,truck,NaN,truck4.png
swin_base,1,156,NaN,elephant,truck,NaN,truck5.png
swin_base,1,157,NaN,truck,truck,NaN,truck6.png
swin_base,1,158,NaN,clock,truck,NaN,truck7.png
swin_base,1,159,NaN,elephant,truck,NaN,truck8.png
swin_base,1,160,NaN,elephant,truck,NaN,truck9.png
