subj,session,trial,rt,object_response,category,condition,imagename
mlp_mixer_l_in21,1,1,NaN,bird,airplane,0,0001_sty_dnn_0_airplane_00_airplane-0001-ILSVRC2012-val-00000631.png
mlp_mixer_l_in21,1,2,NaN,car,airplane,0,0002_sty_dnn_0_airplane_00_airplane-0002-ILSVRC2012-val-00001390.png
mlp_mixer_l_in21,1,3,NaN,car,airplane,0,0003_sty_dnn_0_airplane_00_airplane-0003-ILSVRC2012-val-00001506.png
mlp_mixer_l_in21,1,4,NaN,car,airplane,0,0004_sty_dnn_0_airplane_00_airplane-0004-ILSVRC2012-val-00001952.png
mlp_mixer_l_in21,1,5,NaN,car,airplane,0,0005_sty_dnn_0_airplane_00_airplane-0005-ILSVRC2012-val-00003960.png
mlp_mixer_l_in21,1,6,NaN,dog,airplane,0,0006_sty_dnn_0_airplane_00_airplane-0006-ILSVRC2012-val-00008292.png
mlp_mixer_l_in21,1,7,NaN,bird,airplane,0,0007_sty_dnn_0_airplane_00_airplane-0007-ILSVRC2012-val-00009537.png
mlp_mixer_l_in21,1,8,NaN,boat,airplane,0,0008_sty_dnn_0_airplane_00_airplane-0008-ILSVRC2012-val-00010597.png
mlp_mixer_l_in21,1,9,NaN,oven,airplane,0,0009_sty_dnn_0_airplane_00_airplane-0009-ILSVRC2012-val-00011168.png
mlp_mixer_l_in21,1,10,NaN,elephant,airplane,0,0010_sty_dnn_0_airplane_00_airplane-0010-ILSVRC2012-val-00012263.png
mlp_mixer_l_in21,1,11,NaN,chair,airplane,0,0011_sty_dnn_0_airplane_00_airplane-0011-ILSVRC2012-val-00014425.png
mlp_mixer_l_in21,1,12,NaN,bicycle,airplane,0,0012_sty_dnn_0_airplane_00_airplane-0012-ILSVRC2012-val-00015498.png
mlp_mixer_l_in21,1,13,NaN,car,airplane,0,0013_sty_dnn_0_airplane_00_airplane-0013-ILSVRC2012-val-00015636.png
mlp_mixer_l_in21,1,14,NaN,bear,airplane,0,0014_sty_dnn_0_airplane_00_airplane-0014-ILSVRC2012-val-00016995.png
mlp_mixer_l_in21,1,15,NaN,bottle,airplane,0,0015_sty_dnn_0_airplane_00_airplane-0015-ILSVRC2012-val-00018616.png
mlp_mixer_l_in21,1,16,NaN,bird,airplane,0,0016_sty_dnn_0_airplane_00_airplane-0016-ILSVRC2012-val-00018685.png
mlp_mixer_l_in21,1,17,NaN,bicycle,airplane,0,0017_sty_dnn_0_airplane_00_airplane-0017-ILSVRC2012-val-00019179.png
mlp_mixer_l_in21,1,18,NaN,car,airplane,0,0018_sty_dnn_0_airplane_00_airplane-0018-ILSVRC2012-val-00019677.png
mlp_mixer_l_in21,1,19,NaN,oven,airplane,0,0019_sty_dnn_0_airplane_00_airplane-0019-ILSVRC2012-val-00022532.png
mlp_mixer_l_in21,1,20,NaN,car,airplane,0,0020_sty_dnn_0_airplane_00_airplane-0020-ILSVRC2012-val-00022975.png
mlp_mixer_l_in21,1,21,NaN,car,airplane,0,0021_sty_dnn_0_airplane_00_airplane-0021-ILSVRC2012-val-00023316.png
mlp_mixer_l_in21,1,22,NaN,car,airplane,0,0022_sty_dnn_0_airplane_00_airplane-0022-ILSVRC2012-val-00023781.png
mlp_mixer_l_in21,1,23,NaN,bird,airplane,0,0023_sty_dnn_0_airplane_00_airplane-0023-ILSVRC2012-val-00023863.png
mlp_mixer_l_in21,1,24,NaN,dog,airplane,0,0024_sty_dnn_0_airplane_00_airplane-0024-ILSVRC2012-val-00024108.png
mlp_mixer_l_in21,1,25,NaN,bottle,airplane,0,0025_sty_dnn_0_airplane_00_airplane-0025-ILSVRC2012-val-00024747.png
mlp_mixer_l_in21,1,26,NaN,bird,airplane,0,0026_sty_dnn_0_airplane_00_airplane-0026-ILSVRC2012-val-00026189.png
mlp_mixer_l_in21,1,27,NaN,bird,airplane,0,0027_sty_dnn_0_airplane_00_airplane-0027-ILSVRC2012-val-00026859.png
mlp_mixer_l_in21,1,28,NaN,car,airplane,0,0028_sty_dnn_0_airplane_00_airplane-0028-ILSVRC2012-val-00028019.png
mlp_mixer_l_in21,1,29,NaN,bird,airplane,0,0029_sty_dnn_0_airplane_00_airplane-0029-ILSVRC2012-val-00030319.png
mlp_mixer_l_in21,1,30,NaN,bottle,airplane,0,0030_sty_dnn_0_airplane_00_airplane-0030-ILSVRC2012-val-00030411.png
mlp_mixer_l_in21,1,31,NaN,bird,airplane,0,0031_sty_dnn_0_airplane_00_airplane-0031-ILSVRC2012-val-00030531.png
mlp_mixer_l_in21,1,32,NaN,bird,airplane,0,0032_sty_dnn_0_airplane_00_airplane-0032-ILSVRC2012-val-00032804.png
mlp_mixer_l_in21,1,33,NaN,car,airplane,0,0033_sty_dnn_0_airplane_00_airplane-0033-ILSVRC2012-val-00033161.png
mlp_mixer_l_in21,1,34,NaN,bird,airplane,0,0034_sty_dnn_0_airplane_00_airplane-0034-ILSVRC2012-val-00033441.png
mlp_mixer_l_in21,1,35,NaN,bear,airplane,0,0035_sty_dnn_0_airplane_00_airplane-0035-ILSVRC2012-val-00033920.png
mlp_mixer_l_in21,1,36,NaN,elephant,airplane,0,0036_sty_dnn_0_airplane_00_airplane-0036-ILSVRC2012-val-00034342.png
mlp_mixer_l_in21,1,37,NaN,car,airplane,0,0037_sty_dnn_0_airplane_00_airplane-0037-ILSVRC2012-val-00035783.png
mlp_mixer_l_in21,1,38,NaN,car,airplane,0,0038_sty_dnn_0_airplane_00_airplane-0038-ILSVRC2012-val-00036394.png
mlp_mixer_l_in21,1,39,NaN,chair,airplane,0,0039_sty_dnn_0_airplane_00_airplane-0039-ILSVRC2012-val-00037801.png
mlp_mixer_l_in21,1,40,NaN,car,airplane,0,0040_sty_dnn_0_airplane_00_airplane-0040-ILSVRC2012-val-00039213.png
mlp_mixer_l_in21,1,41,NaN,car,airplane,0,0041_sty_dnn_0_airplane_00_airplane-0041-ILSVRC2012-val-00040136.png
mlp_mixer_l_in21,1,42,NaN,boat,airplane,0,0042_sty_dnn_0_airplane_00_airplane-0042-ILSVRC2012-val-00040547.png
mlp_mixer_l_in21,1,43,NaN,elephant,airplane,0,0043_sty_dnn_0_airplane_00_airplane-0043-ILSVRC2012-val-00041518.png
mlp_mixer_l_in21,1,44,NaN,bird,airplane,0,0044_sty_dnn_0_airplane_00_airplane-0044-ILSVRC2012-val-00043242.png
mlp_mixer_l_in21,1,45,NaN,bird,airplane,0,0045_sty_dnn_0_airplane_00_airplane-0045-ILSVRC2012-val-00044253.png
mlp_mixer_l_in21,1,46,NaN,oven,airplane,0,0046_sty_dnn_0_airplane_00_airplane-0046-ILSVRC2012-val-00046862.png
mlp_mixer_l_in21,1,47,NaN,bird,airplane,0,0047_sty_dnn_0_airplane_00_airplane-0047-ILSVRC2012-val-00046971.png
mlp_mixer_l_in21,1,48,NaN,bird,airplane,0,0048_sty_dnn_0_airplane_00_airplane-0048-ILSVRC2012-val-00047829.png
mlp_mixer_l_in21,1,49,NaN,boat,airplane,0,0049_sty_dnn_0_airplane_00_airplane-0049-ILSVRC2012-val-00048111.png
mlp_mixer_l_in21,1,50,NaN,car,airplane,0,0050_sty_dnn_0_airplane_00_airplane-0050-ILSVRC2012-val-00049097.png
mlp_mixer_l_in21,1,51,NaN,elephant,bear,0,0051_sty_dnn_0_bear_00_bear-0003-ILSVRC2012-val-00003044.png
mlp_mixer_l_in21,1,52,NaN,dog,bear,0,0052_sty_dnn_0_bear_00_bear-0005-ILSVRC2012-val-00006703.png
mlp_mixer_l_in21,1,53,NaN,dog,bear,0,0053_sty_dnn_0_bear_00_bear-0009-ILSVRC2012-val-00011967.png
mlp_mixer_l_in21,1,54,NaN,dog,bear,0,0054_sty_dnn_0_bear_00_bear-0010-ILSVRC2012-val-00013390.png
mlp_mixer_l_in21,1,55,NaN,dog,bear,0,0055_sty_dnn_0_bear_00_bear-0021-ILSVRC2012-val-00031253.png
mlp_mixer_l_in21,1,56,NaN,bird,bear,0,0056_sty_dnn_0_bear_00_bear-0031-ILSVRC2012-val-00039777.png
mlp_mixer_l_in21,1,57,NaN,bird,bear,0,0057_sty_dnn_0_bear_00_bear-0035-ILSVRC2012-val-00042274.png
mlp_mixer_l_in21,1,58,NaN,elephant,bear,0,0058_sty_dnn_0_bear_00_bear-0043-ILSVRC2012-val-00046763.png
mlp_mixer_l_in21,1,59,NaN,car,bear,0,0059_sty_dnn_0_bear_00_bear-0049-ILSVRC2012-val-00049822.png
mlp_mixer_l_in21,1,60,NaN,dog,bear,0,0060_sty_dnn_0_bear_00_bear-0052-ILSVRC2012-val-00000865.png
mlp_mixer_l_in21,1,61,NaN,bird,bear,0,0061_sty_dnn_0_bear_00_bear-0056-ILSVRC2012-val-00007093.png
mlp_mixer_l_in21,1,62,NaN,dog,bear,0,0062_sty_dnn_0_bear_00_bear-0058-ILSVRC2012-val-00011726.png
mlp_mixer_l_in21,1,63,NaN,clock,bear,0,0063_sty_dnn_0_bear_00_bear-0062-ILSVRC2012-val-00014029.png
mlp_mixer_l_in21,1,64,NaN,dog,bear,0,0064_sty_dnn_0_bear_00_bear-0064-ILSVRC2012-val-00016050.png
mlp_mixer_l_in21,1,65,NaN,bird,bear,0,0065_sty_dnn_0_bear_00_bear-0066-ILSVRC2012-val-00016621.png
mlp_mixer_l_in21,1,66,NaN,dog,bear,0,0066_sty_dnn_0_bear_00_bear-0067-ILSVRC2012-val-00017273.png
mlp_mixer_l_in21,1,67,NaN,bird,bear,0,0067_sty_dnn_0_bear_00_bear-0069-ILSVRC2012-val-00018788.png
mlp_mixer_l_in21,1,68,NaN,car,bear,0,0068_sty_dnn_0_bear_00_bear-0071-ILSVRC2012-val-00020050.png
mlp_mixer_l_in21,1,69,NaN,oven,bear,0,0069_sty_dnn_0_bear_00_bear-0073-ILSVRC2012-val-00024289.png
mlp_mixer_l_in21,1,70,NaN,bicycle,bear,0,0070_sty_dnn_0_bear_00_bear-0074-ILSVRC2012-val-00026962.png
mlp_mixer_l_in21,1,71,NaN,dog,bear,0,0071_sty_dnn_0_bear_00_bear-0078-ILSVRC2012-val-00030951.png
mlp_mixer_l_in21,1,72,NaN,dog,bear,0,0072_sty_dnn_0_bear_00_bear-0085-ILSVRC2012-val-00035292.png
mlp_mixer_l_in21,1,73,NaN,dog,bear,0,0073_sty_dnn_0_bear_00_bear-0091-ILSVRC2012-val-00041813.png
mlp_mixer_l_in21,1,74,NaN,bird,bear,0,0074_sty_dnn_0_bear_00_bear-0094-ILSVRC2012-val-00043648.png
mlp_mixer_l_in21,1,75,NaN,dog,bear,0,0075_sty_dnn_0_bear_00_bear-0106-ILSVRC2012-val-00007578.png
mlp_mixer_l_in21,1,76,NaN,bird,bear,0,0076_sty_dnn_0_bear_00_bear-0112-ILSVRC2012-val-00016340.png
mlp_mixer_l_in21,1,77,NaN,boat,bear,0,0077_sty_dnn_0_bear_00_bear-0113-ILSVRC2012-val-00016459.png
mlp_mixer_l_in21,1,78,NaN,bicycle,bear,0,0078_sty_dnn_0_bear_00_bear-0114-ILSVRC2012-val-00017605.png
mlp_mixer_l_in21,1,79,NaN,dog,bear,0,0079_sty_dnn_0_bear_00_bear-0116-ILSVRC2012-val-00020332.png
mlp_mixer_l_in21,1,80,NaN,bear,bear,0,0080_sty_dnn_0_bear_00_bear-0125-ILSVRC2012-val-00028222.png
mlp_mixer_l_in21,1,81,NaN,car,bear,0,0081_sty_dnn_0_bear_00_bear-0129-ILSVRC2012-val-00030485.png
mlp_mixer_l_in21,1,82,NaN,dog,bear,0,0082_sty_dnn_0_bear_00_bear-0131-ILSVRC2012-val-00031877.png
mlp_mixer_l_in21,1,83,NaN,elephant,bear,0,0083_sty_dnn_0_bear_00_bear-0132-ILSVRC2012-val-00036763.png
mlp_mixer_l_in21,1,84,NaN,bird,bear,0,0084_sty_dnn_0_bear_00_bear-0139-ILSVRC2012-val-00041156.png
mlp_mixer_l_in21,1,85,NaN,dog,bear,0,0085_sty_dnn_0_bear_00_bear-0141-ILSVRC2012-val-00042320.png
mlp_mixer_l_in21,1,86,NaN,elephant,bear,0,0086_sty_dnn_0_bear_00_bear-0143-ILSVRC2012-val-00044126.png
mlp_mixer_l_in21,1,87,NaN,oven,bear,0,0087_sty_dnn_0_bear_00_bear-0149-ILSVRC2012-val-00048105.png
mlp_mixer_l_in21,1,88,NaN,bird,bear,0,0088_sty_dnn_0_bear_00_bear-0154-ILSVRC2012-val-00003499.png
mlp_mixer_l_in21,1,89,NaN,dog,bear,0,0089_sty_dnn_0_bear_00_bear-0160-ILSVRC2012-val-00013052.png
mlp_mixer_l_in21,1,90,NaN,car,bear,0,0090_sty_dnn_0_bear_00_bear-0163-ILSVRC2012-val-00016513.png
mlp_mixer_l_in21,1,91,NaN,bird,bear,0,0091_sty_dnn_0_bear_00_bear-0164-ILSVRC2012-val-00018303.png
mlp_mixer_l_in21,1,92,NaN,oven,bear,0,0092_sty_dnn_0_bear_00_bear-0165-ILSVRC2012-val-00019901.png
mlp_mixer_l_in21,1,93,NaN,cat,bear,0,0093_sty_dnn_0_bear_00_bear-0166-ILSVRC2012-val-00022111.png
mlp_mixer_l_in21,1,94,NaN,dog,bear,0,0094_sty_dnn_0_bear_00_bear-0167-ILSVRC2012-val-00022112.png
mlp_mixer_l_in21,1,95,NaN,dog,bear,0,0095_sty_dnn_0_bear_00_bear-0168-ILSVRC2012-val-00022698.png
mlp_mixer_l_in21,1,96,NaN,car,bear,0,0096_sty_dnn_0_bear_00_bear-0180-ILSVRC2012-val-00034637.png
mlp_mixer_l_in21,1,97,NaN,bird,bear,0,0097_sty_dnn_0_bear_00_bear-0184-ILSVRC2012-val-00038961.png
mlp_mixer_l_in21,1,98,NaN,chair,bear,0,0098_sty_dnn_0_bear_00_bear-0188-ILSVRC2012-val-00043016.png
mlp_mixer_l_in21,1,99,NaN,chair,bear,0,0099_sty_dnn_0_bear_00_bear-0191-ILSVRC2012-val-00044349.png
mlp_mixer_l_in21,1,100,NaN,bear,bear,0,0100_sty_dnn_0_bear_00_bear-0195-ILSVRC2012-val-00045672.png
mlp_mixer_l_in21,1,101,NaN,car,bicycle,0,0101_sty_dnn_0_bicycle_00_bicycle-0005-ILSVRC2012-val-00005274.png
mlp_mixer_l_in21,1,102,NaN,bird,bicycle,0,0102_sty_dnn_0_bicycle_00_bicycle-0007-ILSVRC2012-val-00006395.png
mlp_mixer_l_in21,1,103,NaN,bird,bicycle,0,0103_sty_dnn_0_bicycle_00_bicycle-0008-ILSVRC2012-val-00008007.png
mlp_mixer_l_in21,1,104,NaN,bird,bicycle,0,0104_sty_dnn_0_bicycle_00_bicycle-0010-ILSVRC2012-val-00010544.png
mlp_mixer_l_in21,1,105,NaN,bird,bicycle,0,0105_sty_dnn_0_bicycle_00_bicycle-0011-ILSVRC2012-val-00011821.png
mlp_mixer_l_in21,1,106,NaN,bird,bicycle,0,0106_sty_dnn_0_bicycle_00_bicycle-0013-ILSVRC2012-val-00012667.png
mlp_mixer_l_in21,1,107,NaN,bird,bicycle,0,0107_sty_dnn_0_bicycle_00_bicycle-0014-ILSVRC2012-val-00015483.png
mlp_mixer_l_in21,1,108,NaN,bird,bicycle,0,0108_sty_dnn_0_bicycle_00_bicycle-0015-ILSVRC2012-val-00015618.png
mlp_mixer_l_in21,1,109,NaN,bird,bicycle,0,0109_sty_dnn_0_bicycle_00_bicycle-0016-ILSVRC2012-val-00016532.png
mlp_mixer_l_in21,1,110,NaN,chair,bicycle,0,0110_sty_dnn_0_bicycle_00_bicycle-0018-ILSVRC2012-val-00018975.png
mlp_mixer_l_in21,1,111,NaN,clock,bicycle,0,0111_sty_dnn_0_bicycle_00_bicycle-0020-ILSVRC2012-val-00022027.png
mlp_mixer_l_in21,1,112,NaN,bird,bicycle,0,0112_sty_dnn_0_bicycle_00_bicycle-0022-ILSVRC2012-val-00023266.png
mlp_mixer_l_in21,1,113,NaN,elephant,bicycle,0,0113_sty_dnn_0_bicycle_00_bicycle-0024-ILSVRC2012-val-00025915.png
mlp_mixer_l_in21,1,114,NaN,car,bicycle,0,0114_sty_dnn_0_bicycle_00_bicycle-0026-ILSVRC2012-val-00026292.png
mlp_mixer_l_in21,1,115,NaN,oven,bicycle,0,0115_sty_dnn_0_bicycle_00_bicycle-0030-ILSVRC2012-val-00027620.png
mlp_mixer_l_in21,1,116,NaN,car,bicycle,0,0116_sty_dnn_0_bicycle_00_bicycle-0032-ILSVRC2012-val-00030070.png
mlp_mixer_l_in21,1,117,NaN,chair,bicycle,0,0117_sty_dnn_0_bicycle_00_bicycle-0033-ILSVRC2012-val-00031498.png
mlp_mixer_l_in21,1,118,NaN,bird,bicycle,0,0118_sty_dnn_0_bicycle_00_bicycle-0035-ILSVRC2012-val-00033559.png
mlp_mixer_l_in21,1,119,NaN,car,bicycle,0,0119_sty_dnn_0_bicycle_00_bicycle-0037-ILSVRC2012-val-00036009.png
mlp_mixer_l_in21,1,120,NaN,bird,bicycle,0,0120_sty_dnn_0_bicycle_00_bicycle-0038-ILSVRC2012-val-00036903.png
mlp_mixer_l_in21,1,121,NaN,dog,bicycle,0,0121_sty_dnn_0_bicycle_00_bicycle-0039-ILSVRC2012-val-00037292.png
mlp_mixer_l_in21,1,122,NaN,chair,bicycle,0,0122_sty_dnn_0_bicycle_00_bicycle-0040-ILSVRC2012-val-00037433.png
mlp_mixer_l_in21,1,123,NaN,chair,bicycle,0,0123_sty_dnn_0_bicycle_00_bicycle-0043-ILSVRC2012-val-00038415.png
mlp_mixer_l_in21,1,124,NaN,car,bicycle,0,0124_sty_dnn_0_bicycle_00_bicycle-0044-ILSVRC2012-val-00040027.png
mlp_mixer_l_in21,1,125,NaN,bird,bicycle,0,0125_sty_dnn_0_bicycle_00_bicycle-0046-ILSVRC2012-val-00042496.png
mlp_mixer_l_in21,1,126,NaN,bird,bicycle,0,0126_sty_dnn_0_bicycle_00_bicycle-0047-ILSVRC2012-val-00043435.png
mlp_mixer_l_in21,1,127,NaN,bird,bicycle,0,0127_sty_dnn_0_bicycle_00_bicycle-0048-ILSVRC2012-val-00045400.png
mlp_mixer_l_in21,1,128,NaN,bird,bicycle,0,0128_sty_dnn_0_bicycle_00_bicycle-0050-ILSVRC2012-val-00049382.png
mlp_mixer_l_in21,1,129,NaN,dog,bicycle,0,0129_sty_dnn_0_bicycle_00_bicycle-0054-ILSVRC2012-val-00004147.png
mlp_mixer_l_in21,1,130,NaN,bird,bicycle,0,0130_sty_dnn_0_bicycle_00_bicycle-0056-ILSVRC2012-val-00005330.png
mlp_mixer_l_in21,1,131,NaN,bird,bicycle,0,0131_sty_dnn_0_bicycle_00_bicycle-0059-ILSVRC2012-val-00011329.png
mlp_mixer_l_in21,1,132,NaN,bird,bicycle,0,0132_sty_dnn_0_bicycle_00_bicycle-0060-ILSVRC2012-val-00011330.png
mlp_mixer_l_in21,1,133,NaN,bird,bicycle,0,0133_sty_dnn_0_bicycle_00_bicycle-0061-ILSVRC2012-val-00012096.png
mlp_mixer_l_in21,1,134,NaN,bird,bicycle,0,0134_sty_dnn_0_bicycle_00_bicycle-0062-ILSVRC2012-val-00015867.png
mlp_mixer_l_in21,1,135,NaN,bird,bicycle,0,0135_sty_dnn_0_bicycle_00_bicycle-0064-ILSVRC2012-val-00017103.png
mlp_mixer_l_in21,1,136,NaN,oven,bicycle,0,0136_sty_dnn_0_bicycle_00_bicycle-0067-ILSVRC2012-val-00018304.png
mlp_mixer_l_in21,1,137,NaN,car,bicycle,0,0137_sty_dnn_0_bicycle_00_bicycle-0070-ILSVRC2012-val-00020631.png
mlp_mixer_l_in21,1,138,NaN,chair,bicycle,0,0138_sty_dnn_0_bicycle_00_bicycle-0073-ILSVRC2012-val-00027449.png
mlp_mixer_l_in21,1,139,NaN,bottle,bicycle,0,0139_sty_dnn_0_bicycle_00_bicycle-0074-ILSVRC2012-val-00028824.png
mlp_mixer_l_in21,1,140,NaN,bird,bicycle,0,0140_sty_dnn_0_bicycle_00_bicycle-0077-ILSVRC2012-val-00030112.png
mlp_mixer_l_in21,1,141,NaN,dog,bicycle,0,0141_sty_dnn_0_bicycle_00_bicycle-0078-ILSVRC2012-val-00030892.png
mlp_mixer_l_in21,1,142,NaN,bird,bicycle,0,0142_sty_dnn_0_bicycle_00_bicycle-0079-ILSVRC2012-val-00031485.png
mlp_mixer_l_in21,1,143,NaN,dog,bicycle,0,0143_sty_dnn_0_bicycle_00_bicycle-0080-ILSVRC2012-val-00032009.png
mlp_mixer_l_in21,1,144,NaN,clock,bicycle,0,0144_sty_dnn_0_bicycle_00_bicycle-0081-ILSVRC2012-val-00032967.png
mlp_mixer_l_in21,1,145,NaN,bird,bicycle,0,0145_sty_dnn_0_bicycle_00_bicycle-0085-ILSVRC2012-val-00037438.png
mlp_mixer_l_in21,1,146,NaN,bird,bicycle,0,0146_sty_dnn_0_bicycle_00_bicycle-0089-ILSVRC2012-val-00042393.png
mlp_mixer_l_in21,1,147,NaN,bird,bicycle,0,0147_sty_dnn_0_bicycle_00_bicycle-0092-ILSVRC2012-val-00043207.png
mlp_mixer_l_in21,1,148,NaN,bird,bicycle,0,0148_sty_dnn_0_bicycle_00_bicycle-0094-ILSVRC2012-val-00044080.png
mlp_mixer_l_in21,1,149,NaN,bird,bicycle,0,0149_sty_dnn_0_bicycle_00_bicycle-0096-ILSVRC2012-val-00045152.png
mlp_mixer_l_in21,1,150,NaN,oven,bicycle,0,0150_sty_dnn_0_bicycle_00_bicycle-0100-ILSVRC2012-val-00049750.png
mlp_mixer_l_in21,1,151,NaN,dog,bird,0,0151_sty_dnn_0_bird_00_bird-0009-ILSVRC2012-val-00007530.png
mlp_mixer_l_in21,1,152,NaN,truck,bird,0,0152_sty_dnn_0_bird_00_bird-0045-ILSVRC2012-val-00045547.png
mlp_mixer_l_in21,1,153,NaN,boat,bird,0,0153_sty_dnn_0_bird_00_bird-0119-ILSVRC2012-val-00016252.png
mlp_mixer_l_in21,1,154,NaN,boat,bird,0,0154_sty_dnn_0_bird_00_bird-0122-ILSVRC2012-val-00019236.png
mlp_mixer_l_in21,1,155,NaN,car,bird,0,0155_sty_dnn_0_bird_00_bird-0157-ILSVRC2012-val-00005336.png
mlp_mixer_l_in21,1,156,NaN,oven,bird,0,0156_sty_dnn_0_bird_00_bird-0175-ILSVRC2012-val-00018699.png
mlp_mixer_l_in21,1,157,NaN,bird,bird,0,0157_sty_dnn_0_bird_00_bird-0228-ILSVRC2012-val-00017712.png
mlp_mixer_l_in21,1,158,NaN,car,bird,0,0158_sty_dnn_0_bird_00_bird-0238-ILSVRC2012-val-00030657.png
mlp_mixer_l_in21,1,159,NaN,car,bird,0,0159_sty_dnn_0_bird_00_bird-0426-ILSVRC2012-val-00030017.png
mlp_mixer_l_in21,1,160,NaN,car,bird,0,0160_sty_dnn_0_bird_00_bird-0486-ILSVRC2012-val-00037420.png
mlp_mixer_l_in21,1,161,NaN,car,bird,0,0161_sty_dnn_0_bird_00_bird-0513-ILSVRC2012-val-00013223.png
mlp_mixer_l_in21,1,162,NaN,dog,bird,0,0162_sty_dnn_0_bird_00_bird-0522-ILSVRC2012-val-00020730.png
mlp_mixer_l_in21,1,163,NaN,car,bird,0,0163_sty_dnn_0_bird_00_bird-0532-ILSVRC2012-val-00028181.png
mlp_mixer_l_in21,1,164,NaN,truck,bird,0,0164_sty_dnn_0_bird_00_bird-0624-ILSVRC2012-val-00024514.png
mlp_mixer_l_in21,1,165,NaN,car,bird,0,0165_sty_dnn_0_bird_00_bird-0701-ILSVRC2012-val-00000075.png
mlp_mixer_l_in21,1,166,NaN,car,bird,0,0166_sty_dnn_0_bird_00_bird-0752-ILSVRC2012-val-00001596.png
mlp_mixer_l_in21,1,167,NaN,car,bird,0,0167_sty_dnn_0_bird_00_bird-0754-ILSVRC2012-val-00002846.png
mlp_mixer_l_in21,1,168,NaN,clock,bird,0,0168_sty_dnn_0_bird_00_bird-0822-ILSVRC2012-val-00025200.png
mlp_mixer_l_in21,1,169,NaN,chair,bird,0,0169_sty_dnn_0_bird_00_bird-0896-ILSVRC2012-val-00046621.png
mlp_mixer_l_in21,1,170,NaN,car,bird,0,0170_sty_dnn_0_bird_00_bird-0995-ILSVRC2012-val-00046534.png
mlp_mixer_l_in21,1,171,NaN,car,bird,0,0171_sty_dnn_0_bird_00_bird-1052-ILSVRC2012-val-00003884.png
mlp_mixer_l_in21,1,172,NaN,elephant,bird,0,0172_sty_dnn_0_bird_00_bird-1093-ILSVRC2012-val-00044082.png
mlp_mixer_l_in21,1,173,NaN,car,bird,0,0173_sty_dnn_0_bird_00_bird-1172-ILSVRC2012-val-00022442.png
mlp_mixer_l_in21,1,174,NaN,boat,bird,0,0174_sty_dnn_0_bird_00_bird-1188-ILSVRC2012-val-00040014.png
mlp_mixer_l_in21,1,175,NaN,car,bird,0,0175_sty_dnn_0_bird_00_bird-1198-ILSVRC2012-val-00048142.png
mlp_mixer_l_in21,1,176,NaN,car,bird,0,0176_sty_dnn_0_bird_00_bird-1256-ILSVRC2012-val-00005779.png
mlp_mixer_l_in21,1,177,NaN,chair,bird,0,0177_sty_dnn_0_bird_00_bird-1274-ILSVRC2012-val-00025449.png
mlp_mixer_l_in21,1,178,NaN,boat,bird,0,0178_sty_dnn_0_bird_00_bird-1326-ILSVRC2012-val-00025658.png
mlp_mixer_l_in21,1,179,NaN,car,bird,0,0179_sty_dnn_0_bird_00_bird-1394-ILSVRC2012-val-00040051.png
mlp_mixer_l_in21,1,180,NaN,car,bird,0,0180_sty_dnn_0_bird_00_bird-1452-ILSVRC2012-val-00002997.png
mlp_mixer_l_in21,1,181,NaN,car,bird,0,0181_sty_dnn_0_bird_00_bird-1551-ILSVRC2012-val-00000690.png
mlp_mixer_l_in21,1,182,NaN,truck,bird,0,0182_sty_dnn_0_bird_00_bird-1646-ILSVRC2012-val-00039398.png
mlp_mixer_l_in21,1,183,NaN,truck,bird,0,0183_sty_dnn_0_bird_00_bird-1861-ILSVRC2012-val-00007811.png
mlp_mixer_l_in21,1,184,NaN,car,bird,0,0184_sty_dnn_0_bird_00_bird-1865-ILSVRC2012-val-00009672.png
mlp_mixer_l_in21,1,185,NaN,elephant,bird,0,0185_sty_dnn_0_bird_00_bird-1913-ILSVRC2012-val-00012475.png
mlp_mixer_l_in21,1,186,NaN,car,bird,0,0186_sty_dnn_0_bird_00_bird-1941-ILSVRC2012-val-00042829.png
mlp_mixer_l_in21,1,187,NaN,truck,bird,0,0187_sty_dnn_0_bird_00_bird-1971-ILSVRC2012-val-00023024.png
mlp_mixer_l_in21,1,188,NaN,bear,bird,0,0188_sty_dnn_0_bird_00_bird-2011-ILSVRC2012-val-00008842.png
mlp_mixer_l_in21,1,189,NaN,cat,bird,0,0189_sty_dnn_0_bird_00_bird-2082-ILSVRC2012-val-00036457.png
mlp_mixer_l_in21,1,190,NaN,bird,bird,0,0190_sty_dnn_0_bird_00_bird-2118-ILSVRC2012-val-00021926.png
mlp_mixer_l_in21,1,191,NaN,chair,bird,0,0191_sty_dnn_0_bird_00_bird-2144-ILSVRC2012-val-00044377.png
mlp_mixer_l_in21,1,192,NaN,bird,bird,0,0192_sty_dnn_0_bird_00_bird-2178-ILSVRC2012-val-00026510.png
mlp_mixer_l_in21,1,193,NaN,bird,bird,0,0193_sty_dnn_0_bird_00_bird-2184-ILSVRC2012-val-00034910.png
mlp_mixer_l_in21,1,194,NaN,oven,bird,0,0194_sty_dnn_0_bird_00_bird-2221-ILSVRC2012-val-00014977.png
mlp_mixer_l_in21,1,195,NaN,car,bird,0,0195_sty_dnn_0_bird_00_bird-2222-ILSVRC2012-val-00015392.png
mlp_mixer_l_in21,1,196,NaN,elephant,bird,0,0196_sty_dnn_0_bird_00_bird-2248-ILSVRC2012-val-00044992.png
mlp_mixer_l_in21,1,197,NaN,car,bird,0,0197_sty_dnn_0_bird_00_bird-2322-ILSVRC2012-val-00023492.png
mlp_mixer_l_in21,1,198,NaN,bear,bird,0,0198_sty_dnn_0_bird_00_bird-2405-ILSVRC2012-val-00007988.png
mlp_mixer_l_in21,1,199,NaN,car,bird,0,0199_sty_dnn_0_bird_00_bird-2410-ILSVRC2012-val-00010355.png
mlp_mixer_l_in21,1,200,NaN,car,bird,0,0200_sty_dnn_0_bird_00_bird-2433-ILSVRC2012-val-00028670.png
mlp_mixer_l_in21,1,201,NaN,dog,boat,0,0201_sty_dnn_0_boat_00_boat-0005-ILSVRC2012-val-00004909.png
mlp_mixer_l_in21,1,202,NaN,car,boat,0,0202_sty_dnn_0_boat_00_boat-0011-ILSVRC2012-val-00011563.png
mlp_mixer_l_in21,1,203,NaN,bird,boat,0,0203_sty_dnn_0_boat_00_boat-0026-ILSVRC2012-val-00026341.png
mlp_mixer_l_in21,1,204,NaN,car,boat,0,0204_sty_dnn_0_boat_00_boat-0033-ILSVRC2012-val-00030824.png
mlp_mixer_l_in21,1,205,NaN,bird,boat,0,0205_sty_dnn_0_boat_00_boat-0036-ILSVRC2012-val-00032433.png
mlp_mixer_l_in21,1,206,NaN,bird,boat,0,0206_sty_dnn_0_boat_00_boat-0039-ILSVRC2012-val-00033883.png
mlp_mixer_l_in21,1,207,NaN,chair,boat,0,0207_sty_dnn_0_boat_00_boat-0042-ILSVRC2012-val-00039945.png
mlp_mixer_l_in21,1,208,NaN,car,boat,0,0208_sty_dnn_0_boat_00_boat-0044-ILSVRC2012-val-00041227.png
mlp_mixer_l_in21,1,209,NaN,bird,boat,0,0209_sty_dnn_0_boat_00_boat-0048-ILSVRC2012-val-00046387.png
mlp_mixer_l_in21,1,210,NaN,bird,boat,0,0210_sty_dnn_0_boat_00_boat-0053-ILSVRC2012-val-00005918.png
mlp_mixer_l_in21,1,211,NaN,bird,boat,0,0211_sty_dnn_0_boat_00_boat-0061-ILSVRC2012-val-00011292.png
mlp_mixer_l_in21,1,212,NaN,bird,boat,0,0212_sty_dnn_0_boat_00_boat-0064-ILSVRC2012-val-00013366.png
mlp_mixer_l_in21,1,213,NaN,bird,boat,0,0213_sty_dnn_0_boat_00_boat-0066-ILSVRC2012-val-00013961.png
mlp_mixer_l_in21,1,214,NaN,bird,boat,0,0214_sty_dnn_0_boat_00_boat-0070-ILSVRC2012-val-00017026.png
mlp_mixer_l_in21,1,215,NaN,elephant,boat,0,0215_sty_dnn_0_boat_00_boat-0073-ILSVRC2012-val-00018158.png
mlp_mixer_l_in21,1,216,NaN,bird,boat,0,0216_sty_dnn_0_boat_00_boat-0076-ILSVRC2012-val-00020486.png
mlp_mixer_l_in21,1,217,NaN,bird,boat,0,0217_sty_dnn_0_boat_00_boat-0077-ILSVRC2012-val-00021948.png
mlp_mixer_l_in21,1,218,NaN,bird,boat,0,0218_sty_dnn_0_boat_00_boat-0079-ILSVRC2012-val-00025681.png
mlp_mixer_l_in21,1,219,NaN,chair,boat,0,0219_sty_dnn_0_boat_00_boat-0082-ILSVRC2012-val-00027612.png
mlp_mixer_l_in21,1,220,NaN,bear,boat,0,0220_sty_dnn_0_boat_00_boat-0083-ILSVRC2012-val-00034455.png
mlp_mixer_l_in21,1,221,NaN,bird,boat,0,0221_sty_dnn_0_boat_00_boat-0086-ILSVRC2012-val-00039559.png
mlp_mixer_l_in21,1,222,NaN,bottle,boat,0,0222_sty_dnn_0_boat_00_boat-0098-ILSVRC2012-val-00047961.png
mlp_mixer_l_in21,1,223,NaN,bird,boat,0,0223_sty_dnn_0_boat_00_boat-0100-ILSVRC2012-val-00048371.png
mlp_mixer_l_in21,1,224,NaN,bird,boat,0,0224_sty_dnn_0_boat_00_boat-0103-ILSVRC2012-val-00002308.png
mlp_mixer_l_in21,1,225,NaN,bird,boat,0,0225_sty_dnn_0_boat_00_boat-0107-ILSVRC2012-val-00004492.png
mlp_mixer_l_in21,1,226,NaN,chair,boat,0,0226_sty_dnn_0_boat_00_boat-0111-ILSVRC2012-val-00009680.png
mlp_mixer_l_in21,1,227,NaN,car,boat,0,0227_sty_dnn_0_boat_00_boat-0121-ILSVRC2012-val-00016970.png
mlp_mixer_l_in21,1,228,NaN,bear,boat,0,0228_sty_dnn_0_boat_00_boat-0129-ILSVRC2012-val-00027504.png
mlp_mixer_l_in21,1,229,NaN,dog,boat,0,0229_sty_dnn_0_boat_00_boat-0137-ILSVRC2012-val-00035374.png
mlp_mixer_l_in21,1,230,NaN,bicycle,boat,0,0230_sty_dnn_0_boat_00_boat-0142-ILSVRC2012-val-00040889.png
mlp_mixer_l_in21,1,231,NaN,car,boat,0,0231_sty_dnn_0_boat_00_boat-0153-ILSVRC2012-val-00002696.png
mlp_mixer_l_in21,1,232,NaN,bird,boat,0,0232_sty_dnn_0_boat_00_boat-0160-ILSVRC2012-val-00008630.png
mlp_mixer_l_in21,1,233,NaN,bottle,boat,0,0233_sty_dnn_0_boat_00_boat-0165-ILSVRC2012-val-00014242.png
mlp_mixer_l_in21,1,234,NaN,oven,boat,0,0234_sty_dnn_0_boat_00_boat-0169-ILSVRC2012-val-00019970.png
mlp_mixer_l_in21,1,235,NaN,bird,boat,0,0235_sty_dnn_0_boat_00_boat-0170-ILSVRC2012-val-00020353.png
mlp_mixer_l_in21,1,236,NaN,oven,boat,0,0236_sty_dnn_0_boat_00_boat-0172-ILSVRC2012-val-00020894.png
mlp_mixer_l_in21,1,237,NaN,bottle,boat,0,0237_sty_dnn_0_boat_00_boat-0179-ILSVRC2012-val-00026763.png
mlp_mixer_l_in21,1,238,NaN,bird,boat,0,0238_sty_dnn_0_boat_00_boat-0181-ILSVRC2012-val-00031072.png
mlp_mixer_l_in21,1,239,NaN,elephant,boat,0,0239_sty_dnn_0_boat_00_boat-0195-ILSVRC2012-val-00042203.png
mlp_mixer_l_in21,1,240,NaN,bird,boat,0,0240_sty_dnn_0_boat_00_boat-0196-ILSVRC2012-val-00042675.png
mlp_mixer_l_in21,1,241,NaN,chair,boat,0,0241_sty_dnn_0_boat_00_boat-0215-ILSVRC2012-val-00013403.png
mlp_mixer_l_in21,1,242,NaN,bird,boat,0,0242_sty_dnn_0_boat_00_boat-0217-ILSVRC2012-val-00015089.png
mlp_mixer_l_in21,1,243,NaN,cat,boat,0,0243_sty_dnn_0_boat_00_boat-0218-ILSVRC2012-val-00015121.png
mlp_mixer_l_in21,1,244,NaN,bird,boat,0,0244_sty_dnn_0_boat_00_boat-0222-ILSVRC2012-val-00019246.png
mlp_mixer_l_in21,1,245,NaN,dog,boat,0,0245_sty_dnn_0_boat_00_boat-0223-ILSVRC2012-val-00020544.png
mlp_mixer_l_in21,1,246,NaN,bird,boat,0,0246_sty_dnn_0_boat_00_boat-0225-ILSVRC2012-val-00022075.png
mlp_mixer_l_in21,1,247,NaN,bird,boat,0,0247_sty_dnn_0_boat_00_boat-0235-ILSVRC2012-val-00032371.png
mlp_mixer_l_in21,1,248,NaN,oven,boat,0,0248_sty_dnn_0_boat_00_boat-0236-ILSVRC2012-val-00032584.png
mlp_mixer_l_in21,1,249,NaN,oven,boat,0,0249_sty_dnn_0_boat_00_boat-0243-ILSVRC2012-val-00039131.png
mlp_mixer_l_in21,1,250,NaN,car,boat,0,0250_sty_dnn_0_boat_00_boat-0244-ILSVRC2012-val-00040974.png
mlp_mixer_l_in21,1,251,NaN,dog,bottle,0,0251_sty_dnn_0_bottle_00_bottle-0002-ILSVRC2012-val-00002968.png
mlp_mixer_l_in21,1,252,NaN,car,bottle,0,0252_sty_dnn_0_bottle_00_bottle-0003-ILSVRC2012-val-00003622.png
mlp_mixer_l_in21,1,253,NaN,elephant,bottle,0,0253_sty_dnn_0_bottle_00_bottle-0005-ILSVRC2012-val-00004521.png
mlp_mixer_l_in21,1,254,NaN,bird,bottle,0,0254_sty_dnn_0_bottle_00_bottle-0006-ILSVRC2012-val-00004888.png
mlp_mixer_l_in21,1,255,NaN,car,bottle,0,0255_sty_dnn_0_bottle_00_bottle-0011-ILSVRC2012-val-00009225.png
mlp_mixer_l_in21,1,256,NaN,car,bottle,0,0256_sty_dnn_0_bottle_00_bottle-0022-ILSVRC2012-val-00022396.png
mlp_mixer_l_in21,1,257,NaN,bottle,bottle,0,0257_sty_dnn_0_bottle_00_bottle-0030-ILSVRC2012-val-00032921.png
mlp_mixer_l_in21,1,258,NaN,oven,bottle,0,0258_sty_dnn_0_bottle_00_bottle-0031-ILSVRC2012-val-00033822.png
mlp_mixer_l_in21,1,259,NaN,oven,bottle,0,0259_sty_dnn_0_bottle_00_bottle-0032-ILSVRC2012-val-00034979.png
mlp_mixer_l_in21,1,260,NaN,bird,bottle,0,0260_sty_dnn_0_bottle_00_bottle-0037-ILSVRC2012-val-00036359.png
mlp_mixer_l_in21,1,261,NaN,bear,bottle,0,0261_sty_dnn_0_bottle_00_bottle-0039-ILSVRC2012-val-00038570.png
mlp_mixer_l_in21,1,262,NaN,chair,bottle,0,0262_sty_dnn_0_bottle_00_bottle-0047-ILSVRC2012-val-00044787.png
mlp_mixer_l_in21,1,263,NaN,bird,bottle,0,0263_sty_dnn_0_bottle_00_bottle-0052-ILSVRC2012-val-00000252.png
mlp_mixer_l_in21,1,264,NaN,oven,bottle,0,0264_sty_dnn_0_bottle_00_bottle-0055-ILSVRC2012-val-00003066.png
mlp_mixer_l_in21,1,265,NaN,bird,bottle,0,0265_sty_dnn_0_bottle_00_bottle-0057-ILSVRC2012-val-00005967.png
mlp_mixer_l_in21,1,266,NaN,elephant,bottle,0,0266_sty_dnn_0_bottle_00_bottle-0059-ILSVRC2012-val-00008984.png
mlp_mixer_l_in21,1,267,NaN,cat,bottle,0,0267_sty_dnn_0_bottle_00_bottle-0066-ILSVRC2012-val-00016336.png
mlp_mixer_l_in21,1,268,NaN,chair,bottle,0,0268_sty_dnn_0_bottle_00_bottle-0085-ILSVRC2012-val-00036422.png
mlp_mixer_l_in21,1,269,NaN,chair,bottle,0,0269_sty_dnn_0_bottle_00_bottle-0086-ILSVRC2012-val-00036795.png
mlp_mixer_l_in21,1,270,NaN,bird,bottle,0,0270_sty_dnn_0_bottle_00_bottle-0107-ILSVRC2012-val-00008313.png
mlp_mixer_l_in21,1,271,NaN,chair,bottle,0,0271_sty_dnn_0_bottle_00_bottle-0108-ILSVRC2012-val-00008437.png
mlp_mixer_l_in21,1,272,NaN,chair,bottle,0,0272_sty_dnn_0_bottle_00_bottle-0126-ILSVRC2012-val-00022079.png
mlp_mixer_l_in21,1,273,NaN,clock,bottle,0,0273_sty_dnn_0_bottle_00_bottle-0127-ILSVRC2012-val-00023580.png
mlp_mixer_l_in21,1,274,NaN,bird,bottle,0,0274_sty_dnn_0_bottle_00_bottle-0138-ILSVRC2012-val-00032559.png
mlp_mixer_l_in21,1,275,NaN,bird,bottle,0,0275_sty_dnn_0_bottle_00_bottle-0153-ILSVRC2012-val-00003318.png
mlp_mixer_l_in21,1,276,NaN,bird,bottle,0,0276_sty_dnn_0_bottle_00_bottle-0154-ILSVRC2012-val-00003340.png
mlp_mixer_l_in21,1,277,NaN,bird,bottle,0,0277_sty_dnn_0_bottle_00_bottle-0170-ILSVRC2012-val-00020948.png
mlp_mixer_l_in21,1,278,NaN,bird,bottle,0,0278_sty_dnn_0_bottle_00_bottle-0172-ILSVRC2012-val-00021707.png
mlp_mixer_l_in21,1,279,NaN,bird,bottle,0,0279_sty_dnn_0_bottle_00_bottle-0180-ILSVRC2012-val-00027613.png
mlp_mixer_l_in21,1,280,NaN,bird,bottle,0,0280_sty_dnn_0_bottle_00_bottle-0189-ILSVRC2012-val-00040070.png
mlp_mixer_l_in21,1,281,NaN,bird,bottle,0,0281_sty_dnn_0_bottle_00_bottle-0195-ILSVRC2012-val-00045644.png
mlp_mixer_l_in21,1,282,NaN,car,bottle,0,0282_sty_dnn_0_bottle_00_bottle-0204-ILSVRC2012-val-00002597.png
mlp_mixer_l_in21,1,283,NaN,chair,bottle,0,0283_sty_dnn_0_bottle_00_bottle-0205-ILSVRC2012-val-00003263.png
mlp_mixer_l_in21,1,284,NaN,bird,bottle,0,0284_sty_dnn_0_bottle_00_bottle-0214-ILSVRC2012-val-00012572.png
mlp_mixer_l_in21,1,285,NaN,car,bottle,0,0285_sty_dnn_0_bottle_00_bottle-0216-ILSVRC2012-val-00013262.png
mlp_mixer_l_in21,1,286,NaN,elephant,bottle,0,0286_sty_dnn_0_bottle_00_bottle-0218-ILSVRC2012-val-00013667.png
mlp_mixer_l_in21,1,287,NaN,car,bottle,0,0287_sty_dnn_0_bottle_00_bottle-0220-ILSVRC2012-val-00014146.png
mlp_mixer_l_in21,1,288,NaN,elephant,bottle,0,0288_sty_dnn_0_bottle_00_bottle-0222-ILSVRC2012-val-00018657.png
mlp_mixer_l_in21,1,289,NaN,bird,bottle,0,0289_sty_dnn_0_bottle_00_bottle-0224-ILSVRC2012-val-00020102.png
mlp_mixer_l_in21,1,290,NaN,bird,bottle,0,0290_sty_dnn_0_bottle_00_bottle-0233-ILSVRC2012-val-00031504.png
mlp_mixer_l_in21,1,291,NaN,bear,bottle,0,0291_sty_dnn_0_bottle_00_bottle-0243-ILSVRC2012-val-00040157.png
mlp_mixer_l_in21,1,292,NaN,oven,bottle,0,0292_sty_dnn_0_bottle_00_bottle-0254-ILSVRC2012-val-00005933.png
mlp_mixer_l_in21,1,293,NaN,car,bottle,0,0293_sty_dnn_0_bottle_00_bottle-0283-ILSVRC2012-val-00036864.png
mlp_mixer_l_in21,1,294,NaN,chair,bottle,0,0294_sty_dnn_0_bottle_00_bottle-0294-ILSVRC2012-val-00044222.png
mlp_mixer_l_in21,1,295,NaN,chair,bottle,0,0295_sty_dnn_0_bottle_00_bottle-0296-ILSVRC2012-val-00044906.png
mlp_mixer_l_in21,1,296,NaN,bird,bottle,0,0296_sty_dnn_0_bottle_00_bottle-0325-ILSVRC2012-val-00027316.png
mlp_mixer_l_in21,1,297,NaN,car,bottle,0,0297_sty_dnn_0_bottle_00_bottle-0331-ILSVRC2012-val-00033990.png
mlp_mixer_l_in21,1,298,NaN,bird,bottle,0,0298_sty_dnn_0_bottle_00_bottle-0334-ILSVRC2012-val-00036776.png
mlp_mixer_l_in21,1,299,NaN,bird,bottle,0,0299_sty_dnn_0_bottle_00_bottle-0345-ILSVRC2012-val-00044614.png
mlp_mixer_l_in21,1,300,NaN,car,bottle,0,0300_sty_dnn_0_bottle_00_bottle-0347-ILSVRC2012-val-00048539.png
mlp_mixer_l_in21,1,301,NaN,bird,car,0,0301_sty_dnn_0_car_00_car-0001-ILSVRC2012-val-00000175.png
mlp_mixer_l_in21,1,302,NaN,chair,car,0,0302_sty_dnn_0_car_00_car-0004-ILSVRC2012-val-00006084.png
mlp_mixer_l_in21,1,303,NaN,bird,car,0,0303_sty_dnn_0_car_00_car-0005-ILSVRC2012-val-00006220.png
mlp_mixer_l_in21,1,304,NaN,bottle,car,0,0304_sty_dnn_0_car_00_car-0010-ILSVRC2012-val-00012600.png
mlp_mixer_l_in21,1,305,NaN,chair,car,0,0305_sty_dnn_0_car_00_car-0012-ILSVRC2012-val-00014447.png
mlp_mixer_l_in21,1,306,NaN,dog,car,0,0306_sty_dnn_0_car_00_car-0013-ILSVRC2012-val-00014541.png
mlp_mixer_l_in21,1,307,NaN,car,car,0,0307_sty_dnn_0_car_00_car-0018-ILSVRC2012-val-00018138.png
mlp_mixer_l_in21,1,308,NaN,bird,car,0,0308_sty_dnn_0_car_00_car-0019-ILSVRC2012-val-00018335.png
mlp_mixer_l_in21,1,309,NaN,bird,car,0,0309_sty_dnn_0_car_00_car-0021-ILSVRC2012-val-00019695.png
mlp_mixer_l_in21,1,310,NaN,chair,car,0,0310_sty_dnn_0_car_00_car-0024-ILSVRC2012-val-00023221.png
mlp_mixer_l_in21,1,311,NaN,bird,car,0,0311_sty_dnn_0_car_00_car-0025-ILSVRC2012-val-00023474.png
mlp_mixer_l_in21,1,312,NaN,bird,car,0,0312_sty_dnn_0_car_00_car-0028-ILSVRC2012-val-00027049.png
mlp_mixer_l_in21,1,313,NaN,bird,car,0,0313_sty_dnn_0_car_00_car-0029-ILSVRC2012-val-00027081.png
mlp_mixer_l_in21,1,314,NaN,car,car,0,0314_sty_dnn_0_car_00_car-0030-ILSVRC2012-val-00029057.png
mlp_mixer_l_in21,1,315,NaN,bird,car,0,0315_sty_dnn_0_car_00_car-0032-ILSVRC2012-val-00030834.png
mlp_mixer_l_in21,1,316,NaN,bird,car,0,0316_sty_dnn_0_car_00_car-0041-ILSVRC2012-val-00040706.png
mlp_mixer_l_in21,1,317,NaN,bird,car,0,0317_sty_dnn_0_car_00_car-0045-ILSVRC2012-val-00042416.png
mlp_mixer_l_in21,1,318,NaN,chair,car,0,0318_sty_dnn_0_car_00_car-0050-ILSVRC2012-val-00048556.png
mlp_mixer_l_in21,1,319,NaN,car,car,0,0319_sty_dnn_0_car_00_car-0052-ILSVRC2012-val-00004387.png
mlp_mixer_l_in21,1,320,NaN,bear,car,0,0320_sty_dnn_0_car_00_car-0053-ILSVRC2012-val-00004685.png
mlp_mixer_l_in21,1,321,NaN,bird,car,0,0321_sty_dnn_0_car_00_car-0054-ILSVRC2012-val-00005500.png
mlp_mixer_l_in21,1,322,NaN,bird,car,0,0322_sty_dnn_0_car_00_car-0058-ILSVRC2012-val-00010676.png
mlp_mixer_l_in21,1,323,NaN,bottle,car,0,0323_sty_dnn_0_car_00_car-0059-ILSVRC2012-val-00014010.png
mlp_mixer_l_in21,1,324,NaN,chair,car,0,0324_sty_dnn_0_car_00_car-0060-ILSVRC2012-val-00014208.png
mlp_mixer_l_in21,1,325,NaN,bird,car,0,0325_sty_dnn_0_car_00_car-0064-ILSVRC2012-val-00016337.png
mlp_mixer_l_in21,1,326,NaN,bird,car,0,0326_sty_dnn_0_car_00_car-0065-ILSVRC2012-val-00016613.png
mlp_mixer_l_in21,1,327,NaN,bear,car,0,0327_sty_dnn_0_car_00_car-0066-ILSVRC2012-val-00018249.png
mlp_mixer_l_in21,1,328,NaN,bear,car,0,0328_sty_dnn_0_car_00_car-0067-ILSVRC2012-val-00018569.png
mlp_mixer_l_in21,1,329,NaN,bird,car,0,0329_sty_dnn_0_car_00_car-0069-ILSVRC2012-val-00019647.png
mlp_mixer_l_in21,1,330,NaN,bird,car,0,0330_sty_dnn_0_car_00_car-0079-ILSVRC2012-val-00025028.png
mlp_mixer_l_in21,1,331,NaN,dog,car,0,0331_sty_dnn_0_car_00_car-0082-ILSVRC2012-val-00027293.png
mlp_mixer_l_in21,1,332,NaN,bird,car,0,0332_sty_dnn_0_car_00_car-0083-ILSVRC2012-val-00027508.png
mlp_mixer_l_in21,1,333,NaN,oven,car,0,0333_sty_dnn_0_car_00_car-0086-ILSVRC2012-val-00029454.png
mlp_mixer_l_in21,1,334,NaN,chair,car,0,0334_sty_dnn_0_car_00_car-0087-ILSVRC2012-val-00031558.png
mlp_mixer_l_in21,1,335,NaN,car,car,0,0335_sty_dnn_0_car_00_car-0091-ILSVRC2012-val-00036091.png
mlp_mixer_l_in21,1,336,NaN,bird,car,0,0336_sty_dnn_0_car_00_car-0093-ILSVRC2012-val-00038956.png
mlp_mixer_l_in21,1,337,NaN,bicycle,car,0,0337_sty_dnn_0_car_00_car-0095-ILSVRC2012-val-00041430.png
mlp_mixer_l_in21,1,338,NaN,chair,car,0,0338_sty_dnn_0_car_00_car-0096-ILSVRC2012-val-00043824.png
mlp_mixer_l_in21,1,339,NaN,bird,car,0,0339_sty_dnn_0_car_00_car-0103-ILSVRC2012-val-00003478.png
mlp_mixer_l_in21,1,340,NaN,chair,car,0,0340_sty_dnn_0_car_00_car-0106-ILSVRC2012-val-00004868.png
mlp_mixer_l_in21,1,341,NaN,bird,car,0,0341_sty_dnn_0_car_00_car-0110-ILSVRC2012-val-00006285.png
mlp_mixer_l_in21,1,342,NaN,oven,car,0,0342_sty_dnn_0_car_00_car-0111-ILSVRC2012-val-00007125.png
mlp_mixer_l_in21,1,343,NaN,bird,car,0,0343_sty_dnn_0_car_00_car-0117-ILSVRC2012-val-00010983.png
mlp_mixer_l_in21,1,344,NaN,bird,car,0,0344_sty_dnn_0_car_00_car-0118-ILSVRC2012-val-00012327.png
mlp_mixer_l_in21,1,345,NaN,oven,car,0,0345_sty_dnn_0_car_00_car-0121-ILSVRC2012-val-00016638.png
mlp_mixer_l_in21,1,346,NaN,bird,car,0,0346_sty_dnn_0_car_00_car-0134-ILSVRC2012-val-00032944.png
mlp_mixer_l_in21,1,347,NaN,car,car,0,0347_sty_dnn_0_car_00_car-0139-ILSVRC2012-val-00037952.png
mlp_mixer_l_in21,1,348,NaN,dog,car,0,0348_sty_dnn_0_car_00_car-0145-ILSVRC2012-val-00041626.png
mlp_mixer_l_in21,1,349,NaN,bird,car,0,0349_sty_dnn_0_car_00_car-0146-ILSVRC2012-val-00043297.png
mlp_mixer_l_in21,1,350,NaN,bottle,car,0,0350_sty_dnn_0_car_00_car-0149-ILSVRC2012-val-00049427.png
mlp_mixer_l_in21,1,351,NaN,dog,cat,0,0351_sty_dnn_0_cat_00_cat-0005-ILSVRC2012-val-00005358.png
mlp_mixer_l_in21,1,352,NaN,bird,cat,0,0352_sty_dnn_0_cat_00_cat-0012-ILSVRC2012-val-00012377.png
mlp_mixer_l_in21,1,353,NaN,bear,cat,0,0353_sty_dnn_0_cat_00_cat-0031-ILSVRC2012-val-00030706.png
mlp_mixer_l_in21,1,354,NaN,dog,cat,0,0354_sty_dnn_0_cat_00_cat-0032-ILSVRC2012-val-00033420.png
mlp_mixer_l_in21,1,355,NaN,bear,cat,0,0355_sty_dnn_0_cat_00_cat-0034-ILSVRC2012-val-00033837.png
mlp_mixer_l_in21,1,356,NaN,car,cat,0,0356_sty_dnn_0_cat_00_cat-0042-ILSVRC2012-val-00040238.png
mlp_mixer_l_in21,1,357,NaN,dog,cat,0,0357_sty_dnn_0_cat_00_cat-0045-ILSVRC2012-val-00041570.png
mlp_mixer_l_in21,1,358,NaN,dog,cat,0,0358_sty_dnn_0_cat_00_cat-0050-ILSVRC2012-val-00047911.png
mlp_mixer_l_in21,1,359,NaN,car,cat,0,0359_sty_dnn_0_cat_00_cat-0054-ILSVRC2012-val-00003295.png
mlp_mixer_l_in21,1,360,NaN,bear,cat,0,0360_sty_dnn_0_cat_00_cat-0056-ILSVRC2012-val-00007676.png
mlp_mixer_l_in21,1,361,NaN,car,cat,0,0361_sty_dnn_0_cat_00_cat-0062-ILSVRC2012-val-00013788.png
mlp_mixer_l_in21,1,362,NaN,oven,cat,0,0362_sty_dnn_0_cat_00_cat-0064-ILSVRC2012-val-00014860.png
mlp_mixer_l_in21,1,363,NaN,dog,cat,0,0363_sty_dnn_0_cat_00_cat-0069-ILSVRC2012-val-00016399.png
mlp_mixer_l_in21,1,364,NaN,dog,cat,0,0364_sty_dnn_0_cat_00_cat-0072-ILSVRC2012-val-00019303.png
mlp_mixer_l_in21,1,365,NaN,dog,cat,0,0365_sty_dnn_0_cat_00_cat-0073-ILSVRC2012-val-00020140.png
mlp_mixer_l_in21,1,366,NaN,dog,cat,0,0366_sty_dnn_0_cat_00_cat-0082-ILSVRC2012-val-00025723.png
mlp_mixer_l_in21,1,367,NaN,dog,cat,0,0367_sty_dnn_0_cat_00_cat-0092-ILSVRC2012-val-00039621.png
mlp_mixer_l_in21,1,368,NaN,chair,cat,0,0368_sty_dnn_0_cat_00_cat-0096-ILSVRC2012-val-00045420.png
mlp_mixer_l_in21,1,369,NaN,elephant,cat,0,0369_sty_dnn_0_cat_00_cat-0108-ILSVRC2012-val-00002967.png
mlp_mixer_l_in21,1,370,NaN,bear,cat,0,0370_sty_dnn_0_cat_00_cat-0110-ILSVRC2012-val-00004411.png
mlp_mixer_l_in21,1,371,NaN,dog,cat,0,0371_sty_dnn_0_cat_00_cat-0113-ILSVRC2012-val-00007808.png
mlp_mixer_l_in21,1,372,NaN,dog,cat,0,0372_sty_dnn_0_cat_00_cat-0118-ILSVRC2012-val-00010218.png
mlp_mixer_l_in21,1,373,NaN,elephant,cat,0,0373_sty_dnn_0_cat_00_cat-0123-ILSVRC2012-val-00014813.png
mlp_mixer_l_in21,1,374,NaN,car,cat,0,0374_sty_dnn_0_cat_00_cat-0133-ILSVRC2012-val-00023898.png
mlp_mixer_l_in21,1,375,NaN,dog,cat,0,0375_sty_dnn_0_cat_00_cat-0137-ILSVRC2012-val-00027906.png
mlp_mixer_l_in21,1,376,NaN,dog,cat,0,0376_sty_dnn_0_cat_00_cat-0147-ILSVRC2012-val-00041347.png
mlp_mixer_l_in21,1,377,NaN,car,cat,0,0377_sty_dnn_0_cat_00_cat-0150-ILSVRC2012-val-00049996.png
mlp_mixer_l_in21,1,378,NaN,dog,cat,0,0378_sty_dnn_0_cat_00_cat-0160-ILSVRC2012-val-00011528.png
mlp_mixer_l_in21,1,379,NaN,boat,cat,0,0379_sty_dnn_0_cat_00_cat-0162-ILSVRC2012-val-00012173.png
mlp_mixer_l_in21,1,380,NaN,bear,cat,0,0380_sty_dnn_0_cat_00_cat-0165-ILSVRC2012-val-00017325.png
mlp_mixer_l_in21,1,381,NaN,bird,cat,0,0381_sty_dnn_0_cat_00_cat-0169-ILSVRC2012-val-00020688.png
mlp_mixer_l_in21,1,382,NaN,car,cat,0,0382_sty_dnn_0_cat_00_cat-0185-ILSVRC2012-val-00038168.png
mlp_mixer_l_in21,1,383,NaN,dog,cat,0,0383_sty_dnn_0_cat_00_cat-0186-ILSVRC2012-val-00039580.png
mlp_mixer_l_in21,1,384,NaN,oven,cat,0,0384_sty_dnn_0_cat_00_cat-0189-ILSVRC2012-val-00040854.png
mlp_mixer_l_in21,1,385,NaN,elephant,cat,0,0385_sty_dnn_0_cat_00_cat-0202-ILSVRC2012-val-00001496.png
mlp_mixer_l_in21,1,386,NaN,dog,cat,0,0386_sty_dnn_0_cat_00_cat-0234-ILSVRC2012-val-00028970.png
mlp_mixer_l_in21,1,387,NaN,bird,cat,0,0387_sty_dnn_0_cat_00_cat-0236-ILSVRC2012-val-00031185.png
mlp_mixer_l_in21,1,388,NaN,dog,cat,0,0388_sty_dnn_0_cat_00_cat-0238-ILSVRC2012-val-00033582.png
mlp_mixer_l_in21,1,389,NaN,oven,cat,0,0389_sty_dnn_0_cat_00_cat-0242-ILSVRC2012-val-00040192.png
mlp_mixer_l_in21,1,390,NaN,clock,cat,0,0390_sty_dnn_0_cat_00_cat-0243-ILSVRC2012-val-00040600.png
mlp_mixer_l_in21,1,391,NaN,car,cat,0,0391_sty_dnn_0_cat_00_cat-0247-ILSVRC2012-val-00044374.png
mlp_mixer_l_in21,1,392,NaN,dog,cat,0,0392_sty_dnn_0_cat_00_cat-0258-ILSVRC2012-val-00006112.png
mlp_mixer_l_in21,1,393,NaN,dog,cat,0,0393_sty_dnn_0_cat_00_cat-0260-ILSVRC2012-val-00006612.png
mlp_mixer_l_in21,1,394,NaN,dog,cat,0,0394_sty_dnn_0_cat_00_cat-0264-ILSVRC2012-val-00010823.png
mlp_mixer_l_in21,1,395,NaN,dog,cat,0,0395_sty_dnn_0_cat_00_cat-0270-ILSVRC2012-val-00017189.png
mlp_mixer_l_in21,1,396,NaN,bird,cat,0,0396_sty_dnn_0_cat_00_cat-0274-ILSVRC2012-val-00019370.png
mlp_mixer_l_in21,1,397,NaN,car,cat,0,0397_sty_dnn_0_cat_00_cat-0284-ILSVRC2012-val-00027069.png
mlp_mixer_l_in21,1,398,NaN,chair,cat,0,0398_sty_dnn_0_cat_00_cat-0291-ILSVRC2012-val-00035821.png
mlp_mixer_l_in21,1,399,NaN,dog,cat,0,0399_sty_dnn_0_cat_00_cat-0294-ILSVRC2012-val-00037633.png
mlp_mixer_l_in21,1,400,NaN,dog,cat,0,0400_sty_dnn_0_cat_00_cat-0298-ILSVRC2012-val-00042529.png
mlp_mixer_l_in21,1,401,NaN,car,chair,0,0401_sty_dnn_0_chair_00_chair-0006-ILSVRC2012-val-00004679.png
mlp_mixer_l_in21,1,402,NaN,bird,chair,0,0402_sty_dnn_0_chair_00_chair-0018-ILSVRC2012-val-00013838.png
mlp_mixer_l_in21,1,403,NaN,bird,chair,0,0403_sty_dnn_0_chair_00_chair-0022-ILSVRC2012-val-00016403.png
mlp_mixer_l_in21,1,404,NaN,dog,chair,0,0404_sty_dnn_0_chair_00_chair-0024-ILSVRC2012-val-00021099.png
mlp_mixer_l_in21,1,405,NaN,bird,chair,0,0405_sty_dnn_0_chair_00_chair-0030-ILSVRC2012-val-00026896.png
mlp_mixer_l_in21,1,406,NaN,bird,chair,0,0406_sty_dnn_0_chair_00_chair-0033-ILSVRC2012-val-00031805.png
mlp_mixer_l_in21,1,407,NaN,elephant,chair,0,0407_sty_dnn_0_chair_00_chair-0039-ILSVRC2012-val-00041772.png
mlp_mixer_l_in21,1,408,NaN,car,chair,0,0408_sty_dnn_0_chair_00_chair-0040-ILSVRC2012-val-00042512.png
mlp_mixer_l_in21,1,409,NaN,bird,chair,0,0409_sty_dnn_0_chair_00_chair-0045-ILSVRC2012-val-00044898.png
mlp_mixer_l_in21,1,410,NaN,car,chair,0,0410_sty_dnn_0_chair_00_chair-0047-ILSVRC2012-val-00045407.png
mlp_mixer_l_in21,1,411,NaN,bird,chair,0,0411_sty_dnn_0_chair_00_chair-0050-ILSVRC2012-val-00049050.png
mlp_mixer_l_in21,1,412,NaN,oven,chair,0,0412_sty_dnn_0_chair_00_chair-0051-ILSVRC2012-val-00001616.png
mlp_mixer_l_in21,1,413,NaN,bird,chair,0,0413_sty_dnn_0_chair_00_chair-0053-ILSVRC2012-val-00001855.png
mlp_mixer_l_in21,1,414,NaN,chair,chair,0,0414_sty_dnn_0_chair_00_chair-0058-ILSVRC2012-val-00005926.png
mlp_mixer_l_in21,1,415,NaN,bird,chair,0,0415_sty_dnn_0_chair_00_chair-0059-ILSVRC2012-val-00006022.png
mlp_mixer_l_in21,1,416,NaN,elephant,chair,0,0416_sty_dnn_0_chair_00_chair-0072-ILSVRC2012-val-00015559.png
mlp_mixer_l_in21,1,417,NaN,bird,chair,0,0417_sty_dnn_0_chair_00_chair-0081-ILSVRC2012-val-00033069.png
mlp_mixer_l_in21,1,418,NaN,bird,chair,0,0418_sty_dnn_0_chair_00_chair-0085-ILSVRC2012-val-00036175.png
mlp_mixer_l_in21,1,419,NaN,bird,chair,0,0419_sty_dnn_0_chair_00_chair-0087-ILSVRC2012-val-00037905.png
mlp_mixer_l_in21,1,420,NaN,elephant,chair,0,0420_sty_dnn_0_chair_00_chair-0092-ILSVRC2012-val-00041814.png
mlp_mixer_l_in21,1,421,NaN,bird,chair,0,0421_sty_dnn_0_chair_00_chair-0097-ILSVRC2012-val-00043453.png
mlp_mixer_l_in21,1,422,NaN,chair,chair,0,0422_sty_dnn_0_chair_00_chair-0098-ILSVRC2012-val-00044181.png
mlp_mixer_l_in21,1,423,NaN,bird,chair,0,0423_sty_dnn_0_chair_00_chair-0116-ILSVRC2012-val-00017447.png
mlp_mixer_l_in21,1,424,NaN,bird,chair,0,0424_sty_dnn_0_chair_00_chair-0118-ILSVRC2012-val-00018123.png
mlp_mixer_l_in21,1,425,NaN,car,chair,0,0425_sty_dnn_0_chair_00_chair-0119-ILSVRC2012-val-00018206.png
mlp_mixer_l_in21,1,426,NaN,dog,chair,0,0426_sty_dnn_0_chair_00_chair-0122-ILSVRC2012-val-00019867.png
mlp_mixer_l_in21,1,427,NaN,car,chair,0,0427_sty_dnn_0_chair_00_chair-0123-ILSVRC2012-val-00020924.png
mlp_mixer_l_in21,1,428,NaN,clock,chair,0,0428_sty_dnn_0_chair_00_chair-0124-ILSVRC2012-val-00022208.png
mlp_mixer_l_in21,1,429,NaN,chair,chair,0,0429_sty_dnn_0_chair_00_chair-0127-ILSVRC2012-val-00024620.png
mlp_mixer_l_in21,1,430,NaN,chair,chair,0,0430_sty_dnn_0_chair_00_chair-0133-ILSVRC2012-val-00033406.png
mlp_mixer_l_in21,1,431,NaN,bird,chair,0,0431_sty_dnn_0_chair_00_chair-0136-ILSVRC2012-val-00037994.png
mlp_mixer_l_in21,1,432,NaN,car,chair,0,0432_sty_dnn_0_chair_00_chair-0138-ILSVRC2012-val-00038750.png
mlp_mixer_l_in21,1,433,NaN,bird,chair,0,0433_sty_dnn_0_chair_00_chair-0141-ILSVRC2012-val-00040076.png
mlp_mixer_l_in21,1,434,NaN,elephant,chair,0,0434_sty_dnn_0_chair_00_chair-0150-ILSVRC2012-val-00048622.png
mlp_mixer_l_in21,1,435,NaN,bird,chair,0,0435_sty_dnn_0_chair_00_chair-0154-ILSVRC2012-val-00004705.png
mlp_mixer_l_in21,1,436,NaN,bird,chair,0,0436_sty_dnn_0_chair_00_chair-0155-ILSVRC2012-val-00005160.png
mlp_mixer_l_in21,1,437,NaN,bird,chair,0,0437_sty_dnn_0_chair_00_chair-0159-ILSVRC2012-val-00011028.png
mlp_mixer_l_in21,1,438,NaN,bird,chair,0,0438_sty_dnn_0_chair_00_chair-0160-ILSVRC2012-val-00012040.png
mlp_mixer_l_in21,1,439,NaN,car,chair,0,0439_sty_dnn_0_chair_00_chair-0169-ILSVRC2012-val-00019913.png
mlp_mixer_l_in21,1,440,NaN,bird,chair,0,0440_sty_dnn_0_chair_00_chair-0170-ILSVRC2012-val-00022051.png
mlp_mixer_l_in21,1,441,NaN,elephant,chair,0,0441_sty_dnn_0_chair_00_chair-0172-ILSVRC2012-val-00023378.png
mlp_mixer_l_in21,1,442,NaN,oven,chair,0,0442_sty_dnn_0_chair_00_chair-0181-ILSVRC2012-val-00033160.png
mlp_mixer_l_in21,1,443,NaN,car,chair,0,0443_sty_dnn_0_chair_00_chair-0183-ILSVRC2012-val-00035142.png
mlp_mixer_l_in21,1,444,NaN,bear,chair,0,0444_sty_dnn_0_chair_00_chair-0188-ILSVRC2012-val-00041720.png
mlp_mixer_l_in21,1,445,NaN,car,chair,0,0445_sty_dnn_0_chair_00_chair-0189-ILSVRC2012-val-00041883.png
mlp_mixer_l_in21,1,446,NaN,bird,chair,0,0446_sty_dnn_0_chair_00_chair-0192-ILSVRC2012-val-00043870.png
mlp_mixer_l_in21,1,447,NaN,bird,chair,0,0447_sty_dnn_0_chair_00_chair-0193-ILSVRC2012-val-00044295.png
mlp_mixer_l_in21,1,448,NaN,bird,chair,0,0448_sty_dnn_0_chair_00_chair-0195-ILSVRC2012-val-00045464.png
mlp_mixer_l_in21,1,449,NaN,bird,chair,0,0449_sty_dnn_0_chair_00_chair-0196-ILSVRC2012-val-00045844.png
mlp_mixer_l_in21,1,450,NaN,bird,chair,0,0450_sty_dnn_0_chair_00_chair-0199-ILSVRC2012-val-00048901.png
mlp_mixer_l_in21,1,451,NaN,bear,clock,0,0451_sty_dnn_0_clock_00_clock-0001-ILSVRC2012-val-00001011.png
mlp_mixer_l_in21,1,452,NaN,chair,clock,0,0452_sty_dnn_0_clock_00_clock-0007-ILSVRC2012-val-00005490.png
mlp_mixer_l_in21,1,453,NaN,car,clock,0,0453_sty_dnn_0_clock_00_clock-0008-ILSVRC2012-val-00005558.png
mlp_mixer_l_in21,1,454,NaN,oven,clock,0,0454_sty_dnn_0_clock_00_clock-0010-ILSVRC2012-val-00006858.png
mlp_mixer_l_in21,1,455,NaN,car,clock,0,0455_sty_dnn_0_clock_00_clock-0013-ILSVRC2012-val-00013244.png
mlp_mixer_l_in21,1,456,NaN,car,clock,0,0456_sty_dnn_0_clock_00_clock-0018-ILSVRC2012-val-00015871.png
mlp_mixer_l_in21,1,457,NaN,elephant,clock,0,0457_sty_dnn_0_clock_00_clock-0020-ILSVRC2012-val-00016889.png
mlp_mixer_l_in21,1,458,NaN,bear,clock,0,0458_sty_dnn_0_clock_00_clock-0023-ILSVRC2012-val-00017973.png
mlp_mixer_l_in21,1,459,NaN,elephant,clock,0,0459_sty_dnn_0_clock_00_clock-0025-ILSVRC2012-val-00019663.png
mlp_mixer_l_in21,1,460,NaN,oven,clock,0,0460_sty_dnn_0_clock_00_clock-0028-ILSVRC2012-val-00021179.png
mlp_mixer_l_in21,1,461,NaN,bottle,clock,0,0461_sty_dnn_0_clock_00_clock-0029-ILSVRC2012-val-00022719.png
mlp_mixer_l_in21,1,462,NaN,bottle,clock,0,0462_sty_dnn_0_clock_00_clock-0032-ILSVRC2012-val-00024425.png
mlp_mixer_l_in21,1,463,NaN,bird,clock,0,0463_sty_dnn_0_clock_00_clock-0034-ILSVRC2012-val-00026380.png
mlp_mixer_l_in21,1,464,NaN,car,clock,0,0464_sty_dnn_0_clock_00_clock-0038-ILSVRC2012-val-00032489.png
mlp_mixer_l_in21,1,465,NaN,bear,clock,0,0465_sty_dnn_0_clock_00_clock-0039-ILSVRC2012-val-00033429.png
mlp_mixer_l_in21,1,466,NaN,car,clock,0,0466_sty_dnn_0_clock_00_clock-0040-ILSVRC2012-val-00035392.png
mlp_mixer_l_in21,1,467,NaN,cat,clock,0,0467_sty_dnn_0_clock_00_clock-0043-ILSVRC2012-val-00041613.png
mlp_mixer_l_in21,1,468,NaN,bear,clock,0,0468_sty_dnn_0_clock_00_clock-0045-ILSVRC2012-val-00043497.png
mlp_mixer_l_in21,1,469,NaN,elephant,clock,0,0469_sty_dnn_0_clock_00_clock-0046-ILSVRC2012-val-00044049.png
mlp_mixer_l_in21,1,470,NaN,bottle,clock,0,0470_sty_dnn_0_clock_00_clock-0048-ILSVRC2012-val-00044752.png
mlp_mixer_l_in21,1,471,NaN,dog,clock,0,0471_sty_dnn_0_clock_00_clock-0052-ILSVRC2012-val-00003721.png
mlp_mixer_l_in21,1,472,NaN,elephant,clock,0,0472_sty_dnn_0_clock_00_clock-0054-ILSVRC2012-val-00008751.png
mlp_mixer_l_in21,1,473,NaN,car,clock,0,0473_sty_dnn_0_clock_00_clock-0062-ILSVRC2012-val-00014987.png
mlp_mixer_l_in21,1,474,NaN,oven,clock,0,0474_sty_dnn_0_clock_00_clock-0063-ILSVRC2012-val-00015628.png
mlp_mixer_l_in21,1,475,NaN,clock,clock,0,0475_sty_dnn_0_clock_00_clock-0073-ILSVRC2012-val-00026298.png
mlp_mixer_l_in21,1,476,NaN,bottle,clock,0,0476_sty_dnn_0_clock_00_clock-0076-ILSVRC2012-val-00028203.png
mlp_mixer_l_in21,1,477,NaN,bird,clock,0,0477_sty_dnn_0_clock_00_clock-0080-ILSVRC2012-val-00032946.png
mlp_mixer_l_in21,1,478,NaN,chair,clock,0,0478_sty_dnn_0_clock_00_clock-0082-ILSVRC2012-val-00033627.png
mlp_mixer_l_in21,1,479,NaN,oven,clock,0,0479_sty_dnn_0_clock_00_clock-0084-ILSVRC2012-val-00034426.png
mlp_mixer_l_in21,1,480,NaN,bear,clock,0,0480_sty_dnn_0_clock_00_clock-0086-ILSVRC2012-val-00041483.png
mlp_mixer_l_in21,1,481,NaN,bottle,clock,0,0481_sty_dnn_0_clock_00_clock-0089-ILSVRC2012-val-00042911.png
mlp_mixer_l_in21,1,482,NaN,elephant,clock,0,0482_sty_dnn_0_clock_00_clock-0091-ILSVRC2012-val-00044029.png
mlp_mixer_l_in21,1,483,NaN,car,clock,0,0483_sty_dnn_0_clock_00_clock-0092-ILSVRC2012-val-00044168.png
mlp_mixer_l_in21,1,484,NaN,bird,clock,0,0484_sty_dnn_0_clock_00_clock-0098-ILSVRC2012-val-00048682.png
mlp_mixer_l_in21,1,485,NaN,elephant,clock,0,0485_sty_dnn_0_clock_00_clock-0100-ILSVRC2012-val-00049759.png
mlp_mixer_l_in21,1,486,NaN,car,clock,0,0486_sty_dnn_0_clock_00_clock-0106-ILSVRC2012-val-00009413.png
mlp_mixer_l_in21,1,487,NaN,clock,clock,0,0487_sty_dnn_0_clock_00_clock-0107-ILSVRC2012-val-00010270.png
mlp_mixer_l_in21,1,488,NaN,chair,clock,0,0488_sty_dnn_0_clock_00_clock-0108-ILSVRC2012-val-00011957.png
mlp_mixer_l_in21,1,489,NaN,oven,clock,0,0489_sty_dnn_0_clock_00_clock-0110-ILSVRC2012-val-00014035.png
mlp_mixer_l_in21,1,490,NaN,bird,clock,0,0490_sty_dnn_0_clock_00_clock-0112-ILSVRC2012-val-00014635.png
mlp_mixer_l_in21,1,491,NaN,bird,clock,0,0491_sty_dnn_0_clock_00_clock-0118-ILSVRC2012-val-00018443.png
mlp_mixer_l_in21,1,492,NaN,elephant,clock,0,0492_sty_dnn_0_clock_00_clock-0119-ILSVRC2012-val-00018797.png
mlp_mixer_l_in21,1,493,NaN,cat,clock,0,0493_sty_dnn_0_clock_00_clock-0127-ILSVRC2012-val-00030330.png
mlp_mixer_l_in21,1,494,NaN,bird,clock,0,0494_sty_dnn_0_clock_00_clock-0128-ILSVRC2012-val-00030987.png
mlp_mixer_l_in21,1,495,NaN,elephant,clock,0,0495_sty_dnn_0_clock_00_clock-0129-ILSVRC2012-val-00031861.png
mlp_mixer_l_in21,1,496,NaN,bird,clock,0,0496_sty_dnn_0_clock_00_clock-0130-ILSVRC2012-val-00032136.png
mlp_mixer_l_in21,1,497,NaN,elephant,clock,0,0497_sty_dnn_0_clock_00_clock-0142-ILSVRC2012-val-00041461.png
mlp_mixer_l_in21,1,498,NaN,chair,clock,0,0498_sty_dnn_0_clock_00_clock-0143-ILSVRC2012-val-00041547.png
mlp_mixer_l_in21,1,499,NaN,car,clock,0,0499_sty_dnn_0_clock_00_clock-0144-ILSVRC2012-val-00041715.png
mlp_mixer_l_in21,1,500,NaN,clock,clock,0,0500_sty_dnn_0_clock_00_clock-0145-ILSVRC2012-val-00044685.png
mlp_mixer_l_in21,1,501,NaN,dog,dog,0,0501_sty_dnn_0_dog_00_dog-0099-ILSVRC2012-val-00048280.png
mlp_mixer_l_in21,1,502,NaN,dog,dog,0,0502_sty_dnn_0_dog_00_dog-0158-ILSVRC2012-val-00004081.png
mlp_mixer_l_in21,1,503,NaN,dog,dog,0,0503_sty_dnn_0_dog_00_dog-0220-ILSVRC2012-val-00017568.png
mlp_mixer_l_in21,1,504,NaN,dog,dog,0,0504_sty_dnn_0_dog_00_dog-0247-ILSVRC2012-val-00045683.png
mlp_mixer_l_in21,1,505,NaN,bird,dog,0,0505_sty_dnn_0_dog_00_dog-0303-ILSVRC2012-val-00002521.png
mlp_mixer_l_in21,1,506,NaN,bird,dog,0,0506_sty_dnn_0_dog_00_dog-0386-ILSVRC2012-val-00034616.png
mlp_mixer_l_in21,1,507,NaN,bird,dog,0,0507_sty_dnn_0_dog_00_dog-0397-ILSVRC2012-val-00044140.png
mlp_mixer_l_in21,1,508,NaN,dog,dog,0,0508_sty_dnn_0_dog_00_dog-0779-ILSVRC2012-val-00033666.png
mlp_mixer_l_in21,1,509,NaN,dog,dog,0,0509_sty_dnn_0_dog_00_dog-1178-ILSVRC2012-val-00022137.png
mlp_mixer_l_in21,1,510,NaN,elephant,dog,0,0510_sty_dnn_0_dog_00_dog-1191-ILSVRC2012-val-00037989.png
mlp_mixer_l_in21,1,511,NaN,dog,dog,0,0511_sty_dnn_0_dog_00_dog-1398-ILSVRC2012-val-00046547.png
mlp_mixer_l_in21,1,512,NaN,elephant,dog,0,0512_sty_dnn_0_dog_00_dog-1538-ILSVRC2012-val-00038167.png
mlp_mixer_l_in21,1,513,NaN,bird,dog,0,0513_sty_dnn_0_dog_00_dog-1613-ILSVRC2012-val-00015923.png
mlp_mixer_l_in21,1,514,NaN,dog,dog,0,0514_sty_dnn_0_dog_00_dog-1734-ILSVRC2012-val-00031377.png
mlp_mixer_l_in21,1,515,NaN,dog,dog,0,0515_sty_dnn_0_dog_00_dog-1735-ILSVRC2012-val-00031764.png
mlp_mixer_l_in21,1,516,NaN,bird,dog,0,0516_sty_dnn_0_dog_00_dog-1881-ILSVRC2012-val-00028322.png
mlp_mixer_l_in21,1,517,NaN,dog,dog,0,0517_sty_dnn_0_dog_00_dog-2094-ILSVRC2012-val-00044284.png
mlp_mixer_l_in21,1,518,NaN,bird,dog,0,0518_sty_dnn_0_dog_00_dog-2121-ILSVRC2012-val-00015705.png
mlp_mixer_l_in21,1,519,NaN,dog,dog,0,0519_sty_dnn_0_dog_00_dog-2129-ILSVRC2012-val-00025424.png
mlp_mixer_l_in21,1,520,NaN,bird,dog,0,0520_sty_dnn_0_dog_00_dog-2195-ILSVRC2012-val-00046002.png
mlp_mixer_l_in21,1,521,NaN,bear,dog,0,0521_sty_dnn_0_dog_00_dog-2211-ILSVRC2012-val-00010402.png
mlp_mixer_l_in21,1,522,NaN,bird,dog,0,0522_sty_dnn_0_dog_00_dog-2253-ILSVRC2012-val-00003731.png
mlp_mixer_l_in21,1,523,NaN,dog,dog,0,0523_sty_dnn_0_dog_00_dog-2290-ILSVRC2012-val-00036919.png
mlp_mixer_l_in21,1,524,NaN,elephant,dog,0,0524_sty_dnn_0_dog_00_dog-2321-ILSVRC2012-val-00015164.png
mlp_mixer_l_in21,1,525,NaN,bird,dog,0,0525_sty_dnn_0_dog_00_dog-2368-ILSVRC2012-val-00011895.png
mlp_mixer_l_in21,1,526,NaN,dog,dog,0,0526_sty_dnn_0_dog_00_dog-2391-ILSVRC2012-val-00039144.png
mlp_mixer_l_in21,1,527,NaN,dog,dog,0,0527_sty_dnn_0_dog_00_dog-2535-ILSVRC2012-val-00038253.png
mlp_mixer_l_in21,1,528,NaN,bird,dog,0,0528_sty_dnn_0_dog_00_dog-2539-ILSVRC2012-val-00041157.png
mlp_mixer_l_in21,1,529,NaN,oven,dog,0,0529_sty_dnn_0_dog_00_dog-2629-ILSVRC2012-val-00030579.png
mlp_mixer_l_in21,1,530,NaN,elephant,dog,0,0530_sty_dnn_0_dog_00_dog-2876-ILSVRC2012-val-00027038.png
mlp_mixer_l_in21,1,531,NaN,bird,dog,0,0531_sty_dnn_0_dog_00_dog-2889-ILSVRC2012-val-00043272.png
mlp_mixer_l_in21,1,532,NaN,dog,dog,0,0532_sty_dnn_0_dog_00_dog-3044-ILSVRC2012-val-00034485.png
mlp_mixer_l_in21,1,533,NaN,car,dog,0,0533_sty_dnn_0_dog_00_dog-3412-ILSVRC2012-val-00014775.png
mlp_mixer_l_in21,1,534,NaN,dog,dog,0,0534_sty_dnn_0_dog_00_dog-3425-ILSVRC2012-val-00027086.png
mlp_mixer_l_in21,1,535,NaN,dog,dog,0,0535_sty_dnn_0_dog_00_dog-3771-ILSVRC2012-val-00020678.png
mlp_mixer_l_in21,1,536,NaN,dog,dog,0,0536_sty_dnn_0_dog_00_dog-3802-ILSVRC2012-val-00003862.png
mlp_mixer_l_in21,1,537,NaN,bird,dog,0,0537_sty_dnn_0_dog_00_dog-3841-ILSVRC2012-val-00038789.png
mlp_mixer_l_in21,1,538,NaN,bird,dog,0,0538_sty_dnn_0_dog_00_dog-3864-ILSVRC2012-val-00011457.png
mlp_mixer_l_in21,1,539,NaN,dog,dog,0,0539_sty_dnn_0_dog_00_dog-3917-ILSVRC2012-val-00016908.png
mlp_mixer_l_in21,1,540,NaN,dog,dog,0,0540_sty_dnn_0_dog_00_dog-4009-ILSVRC2012-val-00007922.png
mlp_mixer_l_in21,1,541,NaN,dog,dog,0,0541_sty_dnn_0_dog_00_dog-4070-ILSVRC2012-val-00021155.png
mlp_mixer_l_in21,1,542,NaN,bird,dog,0,0542_sty_dnn_0_dog_00_dog-4443-ILSVRC2012-val-00045160.png
mlp_mixer_l_in21,1,543,NaN,bird,dog,0,0543_sty_dnn_0_dog_00_dog-4689-ILSVRC2012-val-00034291.png
mlp_mixer_l_in21,1,544,NaN,dog,dog,0,0544_sty_dnn_0_dog_00_dog-4865-ILSVRC2012-val-00013670.png
mlp_mixer_l_in21,1,545,NaN,bird,dog,0,0545_sty_dnn_0_dog_00_dog-4914-ILSVRC2012-val-00011316.png
mlp_mixer_l_in21,1,546,NaN,dog,dog,0,0546_sty_dnn_0_dog_00_dog-4933-ILSVRC2012-val-00033357.png
mlp_mixer_l_in21,1,547,NaN,dog,dog,0,0547_sty_dnn_0_dog_00_dog-4954-ILSVRC2012-val-00002882.png
mlp_mixer_l_in21,1,548,NaN,dog,dog,0,0548_sty_dnn_0_dog_00_dog-4999-ILSVRC2012-val-00049046.png
mlp_mixer_l_in21,1,549,NaN,dog,dog,0,0549_sty_dnn_0_dog_00_dog-5044-ILSVRC2012-val-00043270.png
mlp_mixer_l_in21,1,550,NaN,bird,dog,0,0550_sty_dnn_0_dog_00_dog-5267-ILSVRC2012-val-00013862.png
mlp_mixer_l_in21,1,551,NaN,dog,elephant,0,0551_sty_dnn_0_elephant_00_elephant-0002-ILSVRC2012-val-00001850.png
mlp_mixer_l_in21,1,552,NaN,dog,elephant,0,0552_sty_dnn_0_elephant_00_elephant-0003-ILSVRC2012-val-00003280.png
mlp_mixer_l_in21,1,553,NaN,oven,elephant,0,0553_sty_dnn_0_elephant_00_elephant-0004-ILSVRC2012-val-00004882.png
mlp_mixer_l_in21,1,554,NaN,car,elephant,0,0554_sty_dnn_0_elephant_00_elephant-0006-ILSVRC2012-val-00005704.png
mlp_mixer_l_in21,1,555,NaN,dog,elephant,0,0555_sty_dnn_0_elephant_00_elephant-0009-ILSVRC2012-val-00010713.png
mlp_mixer_l_in21,1,556,NaN,bird,elephant,0,0556_sty_dnn_0_elephant_00_elephant-0010-ILSVRC2012-val-00011002.png
mlp_mixer_l_in21,1,557,NaN,dog,elephant,0,0557_sty_dnn_0_elephant_00_elephant-0011-ILSVRC2012-val-00011247.png
mlp_mixer_l_in21,1,558,NaN,bird,elephant,0,0558_sty_dnn_0_elephant_00_elephant-0013-ILSVRC2012-val-00014219.png
mlp_mixer_l_in21,1,559,NaN,oven,elephant,0,0559_sty_dnn_0_elephant_00_elephant-0015-ILSVRC2012-val-00015520.png
mlp_mixer_l_in21,1,560,NaN,dog,elephant,0,0560_sty_dnn_0_elephant_00_elephant-0021-ILSVRC2012-val-00021618.png
mlp_mixer_l_in21,1,561,NaN,dog,elephant,0,0561_sty_dnn_0_elephant_00_elephant-0022-ILSVRC2012-val-00022028.png
mlp_mixer_l_in21,1,562,NaN,bird,elephant,0,0562_sty_dnn_0_elephant_00_elephant-0024-ILSVRC2012-val-00022921.png
mlp_mixer_l_in21,1,563,NaN,bird,elephant,0,0563_sty_dnn_0_elephant_00_elephant-0026-ILSVRC2012-val-00023589.png
mlp_mixer_l_in21,1,564,NaN,chair,elephant,0,0564_sty_dnn_0_elephant_00_elephant-0028-ILSVRC2012-val-00025237.png
mlp_mixer_l_in21,1,565,NaN,dog,elephant,0,0565_sty_dnn_0_elephant_00_elephant-0029-ILSVRC2012-val-00027259.png
mlp_mixer_l_in21,1,566,NaN,chair,elephant,0,0566_sty_dnn_0_elephant_00_elephant-0030-ILSVRC2012-val-00028996.png
mlp_mixer_l_in21,1,567,NaN,car,elephant,0,0567_sty_dnn_0_elephant_00_elephant-0032-ILSVRC2012-val-00030248.png
mlp_mixer_l_in21,1,568,NaN,dog,elephant,0,0568_sty_dnn_0_elephant_00_elephant-0033-ILSVRC2012-val-00033715.png
mlp_mixer_l_in21,1,569,NaN,dog,elephant,0,0569_sty_dnn_0_elephant_00_elephant-0035-ILSVRC2012-val-00034035.png
mlp_mixer_l_in21,1,570,NaN,dog,elephant,0,0570_sty_dnn_0_elephant_00_elephant-0036-ILSVRC2012-val-00034664.png
mlp_mixer_l_in21,1,571,NaN,dog,elephant,0,0571_sty_dnn_0_elephant_00_elephant-0041-ILSVRC2012-val-00038720.png
mlp_mixer_l_in21,1,572,NaN,dog,elephant,0,0572_sty_dnn_0_elephant_00_elephant-0043-ILSVRC2012-val-00040923.png
mlp_mixer_l_in21,1,573,NaN,bird,elephant,0,0573_sty_dnn_0_elephant_00_elephant-0045-ILSVRC2012-val-00043193.png
mlp_mixer_l_in21,1,574,NaN,chair,elephant,0,0574_sty_dnn_0_elephant_00_elephant-0046-ILSVRC2012-val-00045103.png
mlp_mixer_l_in21,1,575,NaN,dog,elephant,0,0575_sty_dnn_0_elephant_00_elephant-0047-ILSVRC2012-val-00048547.png
mlp_mixer_l_in21,1,576,NaN,bird,elephant,0,0576_sty_dnn_0_elephant_00_elephant-0051-ILSVRC2012-val-00001177.png
mlp_mixer_l_in21,1,577,NaN,elephant,elephant,0,0577_sty_dnn_0_elephant_00_elephant-0055-ILSVRC2012-val-00003538.png
mlp_mixer_l_in21,1,578,NaN,chair,elephant,0,0578_sty_dnn_0_elephant_00_elephant-0057-ILSVRC2012-val-00004013.png
mlp_mixer_l_in21,1,579,NaN,bottle,elephant,0,0579_sty_dnn_0_elephant_00_elephant-0058-ILSVRC2012-val-00004990.png
mlp_mixer_l_in21,1,580,NaN,chair,elephant,0,0580_sty_dnn_0_elephant_00_elephant-0059-ILSVRC2012-val-00005109.png
mlp_mixer_l_in21,1,581,NaN,bird,elephant,0,0581_sty_dnn_0_elephant_00_elephant-0062-ILSVRC2012-val-00010078.png
mlp_mixer_l_in21,1,582,NaN,bird,elephant,0,0582_sty_dnn_0_elephant_00_elephant-0065-ILSVRC2012-val-00010619.png
mlp_mixer_l_in21,1,583,NaN,elephant,elephant,0,0583_sty_dnn_0_elephant_00_elephant-0068-ILSVRC2012-val-00016215.png
mlp_mixer_l_in21,1,584,NaN,dog,elephant,0,0584_sty_dnn_0_elephant_00_elephant-0069-ILSVRC2012-val-00017097.png
mlp_mixer_l_in21,1,585,NaN,bird,elephant,0,0585_sty_dnn_0_elephant_00_elephant-0073-ILSVRC2012-val-00021807.png
mlp_mixer_l_in21,1,586,NaN,dog,elephant,0,0586_sty_dnn_0_elephant_00_elephant-0074-ILSVRC2012-val-00022907.png
mlp_mixer_l_in21,1,587,NaN,chair,elephant,0,0587_sty_dnn_0_elephant_00_elephant-0078-ILSVRC2012-val-00027908.png
mlp_mixer_l_in21,1,588,NaN,elephant,elephant,0,0588_sty_dnn_0_elephant_00_elephant-0080-ILSVRC2012-val-00030840.png
mlp_mixer_l_in21,1,589,NaN,bird,elephant,0,0589_sty_dnn_0_elephant_00_elephant-0081-ILSVRC2012-val-00032404.png
mlp_mixer_l_in21,1,590,NaN,dog,elephant,0,0590_sty_dnn_0_elephant_00_elephant-0083-ILSVRC2012-val-00033235.png
mlp_mixer_l_in21,1,591,NaN,bird,elephant,0,0591_sty_dnn_0_elephant_00_elephant-0084-ILSVRC2012-val-00033832.png
mlp_mixer_l_in21,1,592,NaN,bird,elephant,0,0592_sty_dnn_0_elephant_00_elephant-0085-ILSVRC2012-val-00033861.png
mlp_mixer_l_in21,1,593,NaN,dog,elephant,0,0593_sty_dnn_0_elephant_00_elephant-0087-ILSVRC2012-val-00034562.png
mlp_mixer_l_in21,1,594,NaN,dog,elephant,0,0594_sty_dnn_0_elephant_00_elephant-0088-ILSVRC2012-val-00036121.png
mlp_mixer_l_in21,1,595,NaN,car,elephant,0,0595_sty_dnn_0_elephant_00_elephant-0090-ILSVRC2012-val-00037659.png
mlp_mixer_l_in21,1,596,NaN,bird,elephant,0,0596_sty_dnn_0_elephant_00_elephant-0091-ILSVRC2012-val-00038578.png
mlp_mixer_l_in21,1,597,NaN,chair,elephant,0,0597_sty_dnn_0_elephant_00_elephant-0095-ILSVRC2012-val-00042879.png
mlp_mixer_l_in21,1,598,NaN,bird,elephant,0,0598_sty_dnn_0_elephant_00_elephant-0096-ILSVRC2012-val-00046061.png
mlp_mixer_l_in21,1,599,NaN,car,elephant,0,0599_sty_dnn_0_elephant_00_elephant-0098-ILSVRC2012-val-00047540.png
mlp_mixer_l_in21,1,600,NaN,dog,elephant,0,0600_sty_dnn_0_elephant_00_elephant-0099-ILSVRC2012-val-00048108.png
mlp_mixer_l_in21,1,601,NaN,clock,keyboard,0,0601_sty_dnn_0_keyboard_00_keyboard-0004-ILSVRC2012-val-00001089.png
mlp_mixer_l_in21,1,602,NaN,bird,keyboard,0,0602_sty_dnn_0_keyboard_00_keyboard-0005-ILSVRC2012-val-00001687.png
mlp_mixer_l_in21,1,603,NaN,dog,keyboard,0,0603_sty_dnn_0_keyboard_00_keyboard-0006-ILSVRC2012-val-00002499.png
mlp_mixer_l_in21,1,604,NaN,cat,keyboard,0,0604_sty_dnn_0_keyboard_00_keyboard-0007-ILSVRC2012-val-00002755.png
mlp_mixer_l_in21,1,605,NaN,bear,keyboard,0,0605_sty_dnn_0_keyboard_00_keyboard-0009-ILSVRC2012-val-00006513.png
mlp_mixer_l_in21,1,606,NaN,chair,keyboard,0,0606_sty_dnn_0_keyboard_00_keyboard-0010-ILSVRC2012-val-00007754.png
mlp_mixer_l_in21,1,607,NaN,bird,keyboard,0,0607_sty_dnn_0_keyboard_00_keyboard-0012-ILSVRC2012-val-00009502.png
mlp_mixer_l_in21,1,608,NaN,dog,keyboard,0,0608_sty_dnn_0_keyboard_00_keyboard-0013-ILSVRC2012-val-00012334.png
mlp_mixer_l_in21,1,609,NaN,bird,keyboard,0,0609_sty_dnn_0_keyboard_00_keyboard-0014-ILSVRC2012-val-00012432.png
mlp_mixer_l_in21,1,610,NaN,elephant,keyboard,0,0610_sty_dnn_0_keyboard_00_keyboard-0015-ILSVRC2012-val-00012808.png
mlp_mixer_l_in21,1,611,NaN,car,keyboard,0,0611_sty_dnn_0_keyboard_00_keyboard-0016-ILSVRC2012-val-00014436.png
mlp_mixer_l_in21,1,612,NaN,oven,keyboard,0,0612_sty_dnn_0_keyboard_00_keyboard-0020-ILSVRC2012-val-00020212.png
mlp_mixer_l_in21,1,613,NaN,bear,keyboard,0,0613_sty_dnn_0_keyboard_00_keyboard-0022-ILSVRC2012-val-00021913.png
mlp_mixer_l_in21,1,614,NaN,car,keyboard,0,0614_sty_dnn_0_keyboard_00_keyboard-0023-ILSVRC2012-val-00023014.png
mlp_mixer_l_in21,1,615,NaN,chair,keyboard,0,0615_sty_dnn_0_keyboard_00_keyboard-0024-ILSVRC2012-val-00025409.png
mlp_mixer_l_in21,1,616,NaN,oven,keyboard,0,0616_sty_dnn_0_keyboard_00_keyboard-0025-ILSVRC2012-val-00026405.png
mlp_mixer_l_in21,1,617,NaN,elephant,keyboard,0,0617_sty_dnn_0_keyboard_00_keyboard-0029-ILSVRC2012-val-00027307.png
mlp_mixer_l_in21,1,618,NaN,clock,keyboard,0,0618_sty_dnn_0_keyboard_00_keyboard-0030-ILSVRC2012-val-00029239.png
mlp_mixer_l_in21,1,619,NaN,chair,keyboard,0,0619_sty_dnn_0_keyboard_00_keyboard-0038-ILSVRC2012-val-00038711.png
mlp_mixer_l_in21,1,620,NaN,car,keyboard,0,0620_sty_dnn_0_keyboard_00_keyboard-0041-ILSVRC2012-val-00041349.png
mlp_mixer_l_in21,1,621,NaN,bird,keyboard,0,0621_sty_dnn_0_keyboard_00_keyboard-0045-ILSVRC2012-val-00045039.png
mlp_mixer_l_in21,1,622,NaN,chair,keyboard,0,0622_sty_dnn_0_keyboard_00_keyboard-0047-ILSVRC2012-val-00046306.png
mlp_mixer_l_in21,1,623,NaN,bear,keyboard,0,0623_sty_dnn_0_keyboard_00_keyboard-0054-ILSVRC2012-val-00001100.png
mlp_mixer_l_in21,1,624,NaN,car,keyboard,0,0624_sty_dnn_0_keyboard_00_keyboard-0055-ILSVRC2012-val-00001330.png
mlp_mixer_l_in21,1,625,NaN,bear,keyboard,0,0625_sty_dnn_0_keyboard_00_keyboard-0056-ILSVRC2012-val-00003296.png
mlp_mixer_l_in21,1,626,NaN,bear,keyboard,0,0626_sty_dnn_0_keyboard_00_keyboard-0057-ILSVRC2012-val-00005863.png
mlp_mixer_l_in21,1,627,NaN,chair,keyboard,0,0627_sty_dnn_0_keyboard_00_keyboard-0058-ILSVRC2012-val-00007790.png
mlp_mixer_l_in21,1,628,NaN,elephant,keyboard,0,0628_sty_dnn_0_keyboard_00_keyboard-0059-ILSVRC2012-val-00007856.png
mlp_mixer_l_in21,1,629,NaN,bear,keyboard,0,0629_sty_dnn_0_keyboard_00_keyboard-0060-ILSVRC2012-val-00008319.png
mlp_mixer_l_in21,1,630,NaN,chair,keyboard,0,0630_sty_dnn_0_keyboard_00_keyboard-0061-ILSVRC2012-val-00008530.png
mlp_mixer_l_in21,1,631,NaN,chair,keyboard,0,0631_sty_dnn_0_keyboard_00_keyboard-0062-ILSVRC2012-val-00008632.png
mlp_mixer_l_in21,1,632,NaN,car,keyboard,0,0632_sty_dnn_0_keyboard_00_keyboard-0063-ILSVRC2012-val-00009383.png
mlp_mixer_l_in21,1,633,NaN,cat,keyboard,0,0633_sty_dnn_0_keyboard_00_keyboard-0065-ILSVRC2012-val-00012212.png
mlp_mixer_l_in21,1,634,NaN,car,keyboard,0,0634_sty_dnn_0_keyboard_00_keyboard-0067-ILSVRC2012-val-00013266.png
mlp_mixer_l_in21,1,635,NaN,bird,keyboard,0,0635_sty_dnn_0_keyboard_00_keyboard-0068-ILSVRC2012-val-00013404.png
mlp_mixer_l_in21,1,636,NaN,elephant,keyboard,0,0636_sty_dnn_0_keyboard_00_keyboard-0070-ILSVRC2012-val-00015929.png
mlp_mixer_l_in21,1,637,NaN,car,keyboard,0,0637_sty_dnn_0_keyboard_00_keyboard-0073-ILSVRC2012-val-00019503.png
mlp_mixer_l_in21,1,638,NaN,car,keyboard,0,0638_sty_dnn_0_keyboard_00_keyboard-0074-ILSVRC2012-val-00020967.png
mlp_mixer_l_in21,1,639,NaN,car,keyboard,0,0639_sty_dnn_0_keyboard_00_keyboard-0076-ILSVRC2012-val-00022077.png
mlp_mixer_l_in21,1,640,NaN,oven,keyboard,0,0640_sty_dnn_0_keyboard_00_keyboard-0077-ILSVRC2012-val-00025109.png
mlp_mixer_l_in21,1,641,NaN,bird,keyboard,0,0641_sty_dnn_0_keyboard_00_keyboard-0080-ILSVRC2012-val-00028169.png
mlp_mixer_l_in21,1,642,NaN,bird,keyboard,0,0642_sty_dnn_0_keyboard_00_keyboard-0081-ILSVRC2012-val-00028754.png
mlp_mixer_l_in21,1,643,NaN,bear,keyboard,0,0643_sty_dnn_0_keyboard_00_keyboard-0083-ILSVRC2012-val-00036727.png
mlp_mixer_l_in21,1,644,NaN,bear,keyboard,0,0644_sty_dnn_0_keyboard_00_keyboard-0084-ILSVRC2012-val-00036957.png
mlp_mixer_l_in21,1,645,NaN,elephant,keyboard,0,0645_sty_dnn_0_keyboard_00_keyboard-0085-ILSVRC2012-val-00037048.png
mlp_mixer_l_in21,1,646,NaN,bird,keyboard,0,0646_sty_dnn_0_keyboard_00_keyboard-0086-ILSVRC2012-val-00037986.png
mlp_mixer_l_in21,1,647,NaN,elephant,keyboard,0,0647_sty_dnn_0_keyboard_00_keyboard-0087-ILSVRC2012-val-00039947.png
mlp_mixer_l_in21,1,648,NaN,elephant,keyboard,0,0648_sty_dnn_0_keyboard_00_keyboard-0088-ILSVRC2012-val-00041420.png
mlp_mixer_l_in21,1,649,NaN,car,keyboard,0,0649_sty_dnn_0_keyboard_00_keyboard-0090-ILSVRC2012-val-00044306.png
mlp_mixer_l_in21,1,650,NaN,bird,keyboard,0,0650_sty_dnn_0_keyboard_00_keyboard-0092-ILSVRC2012-val-00044775.png
mlp_mixer_l_in21,1,651,NaN,elephant,knife,0,0651_sty_dnn_0_knife_00_knife-0001-ILSVRC2012-val-00000564.png
mlp_mixer_l_in21,1,652,NaN,bird,knife,0,0652_sty_dnn_0_knife_00_knife-0002-ILSVRC2012-val-00000582.png
mlp_mixer_l_in21,1,653,NaN,dog,knife,0,0653_sty_dnn_0_knife_00_knife-0003-ILSVRC2012-val-00001964.png
mlp_mixer_l_in21,1,654,NaN,bird,knife,0,0654_sty_dnn_0_knife_00_knife-0004-ILSVRC2012-val-00002212.png
mlp_mixer_l_in21,1,655,NaN,bird,knife,0,0655_sty_dnn_0_knife_00_knife-0005-ILSVRC2012-val-00003462.png
mlp_mixer_l_in21,1,656,NaN,dog,knife,0,0656_sty_dnn_0_knife_00_knife-0006-ILSVRC2012-val-00004379.png
mlp_mixer_l_in21,1,657,NaN,oven,knife,0,0657_sty_dnn_0_knife_00_knife-0007-ILSVRC2012-val-00004815.png
mlp_mixer_l_in21,1,658,NaN,bird,knife,0,0658_sty_dnn_0_knife_00_knife-0008-ILSVRC2012-val-00006102.png
mlp_mixer_l_in21,1,659,NaN,elephant,knife,0,0659_sty_dnn_0_knife_00_knife-0009-ILSVRC2012-val-00008526.png
mlp_mixer_l_in21,1,660,NaN,car,knife,0,0660_sty_dnn_0_knife_00_knife-0010-ILSVRC2012-val-00009160.png
mlp_mixer_l_in21,1,661,NaN,bottle,knife,0,0661_sty_dnn_0_knife_00_knife-0011-ILSVRC2012-val-00009367.png
mlp_mixer_l_in21,1,662,NaN,bird,knife,0,0662_sty_dnn_0_knife_00_knife-0012-ILSVRC2012-val-00009369.png
mlp_mixer_l_in21,1,663,NaN,dog,knife,0,0663_sty_dnn_0_knife_00_knife-0013-ILSVRC2012-val-00010577.png
mlp_mixer_l_in21,1,664,NaN,elephant,knife,0,0664_sty_dnn_0_knife_00_knife-0014-ILSVRC2012-val-00010886.png
mlp_mixer_l_in21,1,665,NaN,chair,knife,0,0665_sty_dnn_0_knife_00_knife-0015-ILSVRC2012-val-00011081.png
mlp_mixer_l_in21,1,666,NaN,car,knife,0,0666_sty_dnn_0_knife_00_knife-0016-ILSVRC2012-val-00012885.png
mlp_mixer_l_in21,1,667,NaN,elephant,knife,0,0667_sty_dnn_0_knife_00_knife-0017-ILSVRC2012-val-00014528.png
mlp_mixer_l_in21,1,668,NaN,bird,knife,0,0668_sty_dnn_0_knife_00_knife-0018-ILSVRC2012-val-00014608.png
mlp_mixer_l_in21,1,669,NaN,cat,knife,0,0669_sty_dnn_0_knife_00_knife-0019-ILSVRC2012-val-00014960.png
mlp_mixer_l_in21,1,670,NaN,elephant,knife,0,0670_sty_dnn_0_knife_00_knife-0020-ILSVRC2012-val-00015679.png
mlp_mixer_l_in21,1,671,NaN,oven,knife,0,0671_sty_dnn_0_knife_00_knife-0021-ILSVRC2012-val-00016901.png
mlp_mixer_l_in21,1,672,NaN,dog,knife,0,0672_sty_dnn_0_knife_00_knife-0022-ILSVRC2012-val-00019358.png
mlp_mixer_l_in21,1,673,NaN,car,knife,0,0673_sty_dnn_0_knife_00_knife-0023-ILSVRC2012-val-00020998.png
mlp_mixer_l_in21,1,674,NaN,bear,knife,0,0674_sty_dnn_0_knife_00_knife-0024-ILSVRC2012-val-00021297.png
mlp_mixer_l_in21,1,675,NaN,car,knife,0,0675_sty_dnn_0_knife_00_knife-0025-ILSVRC2012-val-00022700.png
mlp_mixer_l_in21,1,676,NaN,chair,knife,0,0676_sty_dnn_0_knife_00_knife-0026-ILSVRC2012-val-00024520.png
mlp_mixer_l_in21,1,677,NaN,chair,knife,0,0677_sty_dnn_0_knife_00_knife-0027-ILSVRC2012-val-00025279.png
mlp_mixer_l_in21,1,678,NaN,dog,knife,0,0678_sty_dnn_0_knife_00_knife-0028-ILSVRC2012-val-00026439.png
mlp_mixer_l_in21,1,679,NaN,bird,knife,0,0679_sty_dnn_0_knife_00_knife-0029-ILSVRC2012-val-00026505.png
mlp_mixer_l_in21,1,680,NaN,bird,knife,0,0680_sty_dnn_0_knife_00_knife-0030-ILSVRC2012-val-00027427.png
mlp_mixer_l_in21,1,681,NaN,elephant,knife,0,0681_sty_dnn_0_knife_00_knife-0031-ILSVRC2012-val-00027474.png
mlp_mixer_l_in21,1,682,NaN,bird,knife,0,0682_sty_dnn_0_knife_00_knife-0032-ILSVRC2012-val-00027812.png
mlp_mixer_l_in21,1,683,NaN,chair,knife,0,0683_sty_dnn_0_knife_00_knife-0033-ILSVRC2012-val-00028494.png
mlp_mixer_l_in21,1,684,NaN,cat,knife,0,0684_sty_dnn_0_knife_00_knife-0034-ILSVRC2012-val-00029248.png
mlp_mixer_l_in21,1,685,NaN,bird,knife,0,0685_sty_dnn_0_knife_00_knife-0035-ILSVRC2012-val-00029833.png
mlp_mixer_l_in21,1,686,NaN,elephant,knife,0,0686_sty_dnn_0_knife_00_knife-0036-ILSVRC2012-val-00034599.png
mlp_mixer_l_in21,1,687,NaN,bear,knife,0,0687_sty_dnn_0_knife_00_knife-0037-ILSVRC2012-val-00034765.png
mlp_mixer_l_in21,1,688,NaN,car,knife,0,0688_sty_dnn_0_knife_00_knife-0038-ILSVRC2012-val-00037845.png
mlp_mixer_l_in21,1,689,NaN,bear,knife,0,0689_sty_dnn_0_knife_00_knife-0039-ILSVRC2012-val-00038320.png
mlp_mixer_l_in21,1,690,NaN,bottle,knife,0,0690_sty_dnn_0_knife_00_knife-0040-ILSVRC2012-val-00038348.png
mlp_mixer_l_in21,1,691,NaN,bird,knife,0,0691_sty_dnn_0_knife_00_knife-0041-ILSVRC2012-val-00038966.png
mlp_mixer_l_in21,1,692,NaN,bird,knife,0,0692_sty_dnn_0_knife_00_knife-0042-ILSVRC2012-val-00039665.png
mlp_mixer_l_in21,1,693,NaN,boat,knife,0,0693_sty_dnn_0_knife_00_knife-0043-ILSVRC2012-val-00039826.png
mlp_mixer_l_in21,1,694,NaN,elephant,knife,0,0694_sty_dnn_0_knife_00_knife-0044-ILSVRC2012-val-00040170.png
mlp_mixer_l_in21,1,695,NaN,bird,knife,0,0695_sty_dnn_0_knife_00_knife-0045-ILSVRC2012-val-00041660.png
mlp_mixer_l_in21,1,696,NaN,chair,knife,0,0696_sty_dnn_0_knife_00_knife-0046-ILSVRC2012-val-00045197.png
mlp_mixer_l_in21,1,697,NaN,oven,knife,0,0697_sty_dnn_0_knife_00_knife-0047-ILSVRC2012-val-00046361.png
mlp_mixer_l_in21,1,698,NaN,bird,knife,0,0698_sty_dnn_0_knife_00_knife-0048-ILSVRC2012-val-00048029.png
mlp_mixer_l_in21,1,699,NaN,bird,knife,0,0699_sty_dnn_0_knife_00_knife-0049-ILSVRC2012-val-00048820.png
mlp_mixer_l_in21,1,700,NaN,bird,knife,0,0700_sty_dnn_0_knife_00_knife-0050-ILSVRC2012-val-00048891.png
mlp_mixer_l_in21,1,701,NaN,chair,oven,0,0701_sty_dnn_0_oven_00_oven-0001-ILSVRC2012-val-00001625.png
mlp_mixer_l_in21,1,702,NaN,elephant,oven,0,0702_sty_dnn_0_oven_00_oven-0002-ILSVRC2012-val-00002517.png
mlp_mixer_l_in21,1,703,NaN,dog,oven,0,0703_sty_dnn_0_oven_00_oven-0003-ILSVRC2012-val-00002864.png
mlp_mixer_l_in21,1,704,NaN,bird,oven,0,0704_sty_dnn_0_oven_00_oven-0004-ILSVRC2012-val-00003075.png
mlp_mixer_l_in21,1,705,NaN,bird,oven,0,0705_sty_dnn_0_oven_00_oven-0005-ILSVRC2012-val-00004125.png
mlp_mixer_l_in21,1,706,NaN,oven,oven,0,0706_sty_dnn_0_oven_00_oven-0006-ILSVRC2012-val-00004891.png
mlp_mixer_l_in21,1,707,NaN,boat,oven,0,0707_sty_dnn_0_oven_00_oven-0007-ILSVRC2012-val-00005817.png
mlp_mixer_l_in21,1,708,NaN,elephant,oven,0,0708_sty_dnn_0_oven_00_oven-0008-ILSVRC2012-val-00007052.png
mlp_mixer_l_in21,1,709,NaN,bird,oven,0,0709_sty_dnn_0_oven_00_oven-0009-ILSVRC2012-val-00007132.png
mlp_mixer_l_in21,1,710,NaN,bird,oven,0,0710_sty_dnn_0_oven_00_oven-0010-ILSVRC2012-val-00010367.png
mlp_mixer_l_in21,1,711,NaN,oven,oven,0,0711_sty_dnn_0_oven_00_oven-0011-ILSVRC2012-val-00010717.png
mlp_mixer_l_in21,1,712,NaN,car,oven,0,0712_sty_dnn_0_oven_00_oven-0012-ILSVRC2012-val-00010756.png
mlp_mixer_l_in21,1,713,NaN,chair,oven,0,0713_sty_dnn_0_oven_00_oven-0013-ILSVRC2012-val-00011779.png
mlp_mixer_l_in21,1,714,NaN,elephant,oven,0,0714_sty_dnn_0_oven_00_oven-0014-ILSVRC2012-val-00012082.png
mlp_mixer_l_in21,1,715,NaN,dog,oven,0,0715_sty_dnn_0_oven_00_oven-0015-ILSVRC2012-val-00013982.png
mlp_mixer_l_in21,1,716,NaN,bird,oven,0,0716_sty_dnn_0_oven_00_oven-0016-ILSVRC2012-val-00014839.png
mlp_mixer_l_in21,1,717,NaN,bird,oven,0,0717_sty_dnn_0_oven_00_oven-0017-ILSVRC2012-val-00015514.png
mlp_mixer_l_in21,1,718,NaN,chair,oven,0,0718_sty_dnn_0_oven_00_oven-0018-ILSVRC2012-val-00017795.png
mlp_mixer_l_in21,1,719,NaN,bird,oven,0,0719_sty_dnn_0_oven_00_oven-0019-ILSVRC2012-val-00017971.png
mlp_mixer_l_in21,1,720,NaN,elephant,oven,0,0720_sty_dnn_0_oven_00_oven-0020-ILSVRC2012-val-00019568.png
mlp_mixer_l_in21,1,721,NaN,bird,oven,0,0721_sty_dnn_0_oven_00_oven-0021-ILSVRC2012-val-00019775.png
mlp_mixer_l_in21,1,722,NaN,chair,oven,0,0722_sty_dnn_0_oven_00_oven-0022-ILSVRC2012-val-00020361.png
mlp_mixer_l_in21,1,723,NaN,dog,oven,0,0723_sty_dnn_0_oven_00_oven-0023-ILSVRC2012-val-00020809.png
mlp_mixer_l_in21,1,724,NaN,chair,oven,0,0724_sty_dnn_0_oven_00_oven-0024-ILSVRC2012-val-00021187.png
mlp_mixer_l_in21,1,725,NaN,bottle,oven,0,0725_sty_dnn_0_oven_00_oven-0025-ILSVRC2012-val-00022348.png
mlp_mixer_l_in21,1,726,NaN,bicycle,oven,0,0726_sty_dnn_0_oven_00_oven-0026-ILSVRC2012-val-00022397.png
mlp_mixer_l_in21,1,727,NaN,bird,oven,0,0727_sty_dnn_0_oven_00_oven-0027-ILSVRC2012-val-00024603.png
mlp_mixer_l_in21,1,728,NaN,car,oven,0,0728_sty_dnn_0_oven_00_oven-0028-ILSVRC2012-val-00025917.png
mlp_mixer_l_in21,1,729,NaN,car,oven,0,0729_sty_dnn_0_oven_00_oven-0029-ILSVRC2012-val-00028472.png
mlp_mixer_l_in21,1,730,NaN,car,oven,0,0730_sty_dnn_0_oven_00_oven-0030-ILSVRC2012-val-00028507.png
mlp_mixer_l_in21,1,731,NaN,chair,oven,0,0731_sty_dnn_0_oven_00_oven-0031-ILSVRC2012-val-00029125.png
mlp_mixer_l_in21,1,732,NaN,bird,oven,0,0732_sty_dnn_0_oven_00_oven-0032-ILSVRC2012-val-00029341.png
mlp_mixer_l_in21,1,733,NaN,bird,oven,0,0733_sty_dnn_0_oven_00_oven-0033-ILSVRC2012-val-00031595.png
mlp_mixer_l_in21,1,734,NaN,bird,oven,0,0734_sty_dnn_0_oven_00_oven-0034-ILSVRC2012-val-00033304.png
mlp_mixer_l_in21,1,735,NaN,boat,oven,0,0735_sty_dnn_0_oven_00_oven-0035-ILSVRC2012-val-00034788.png
mlp_mixer_l_in21,1,736,NaN,clock,oven,0,0736_sty_dnn_0_oven_00_oven-0036-ILSVRC2012-val-00035817.png
mlp_mixer_l_in21,1,737,NaN,chair,oven,0,0737_sty_dnn_0_oven_00_oven-0037-ILSVRC2012-val-00037357.png
mlp_mixer_l_in21,1,738,NaN,dog,oven,0,0738_sty_dnn_0_oven_00_oven-0038-ILSVRC2012-val-00038011.png
mlp_mixer_l_in21,1,739,NaN,clock,oven,0,0739_sty_dnn_0_oven_00_oven-0039-ILSVRC2012-val-00038382.png
mlp_mixer_l_in21,1,740,NaN,bird,oven,0,0740_sty_dnn_0_oven_00_oven-0040-ILSVRC2012-val-00038775.png
mlp_mixer_l_in21,1,741,NaN,bird,oven,0,0741_sty_dnn_0_oven_00_oven-0041-ILSVRC2012-val-00039789.png
mlp_mixer_l_in21,1,742,NaN,dog,oven,0,0742_sty_dnn_0_oven_00_oven-0042-ILSVRC2012-val-00039873.png
mlp_mixer_l_in21,1,743,NaN,chair,oven,0,0743_sty_dnn_0_oven_00_oven-0043-ILSVRC2012-val-00041628.png
mlp_mixer_l_in21,1,744,NaN,car,oven,0,0744_sty_dnn_0_oven_00_oven-0044-ILSVRC2012-val-00041974.png
mlp_mixer_l_in21,1,745,NaN,boat,oven,0,0745_sty_dnn_0_oven_00_oven-0045-ILSVRC2012-val-00045813.png
mlp_mixer_l_in21,1,746,NaN,elephant,oven,0,0746_sty_dnn_0_oven_00_oven-0046-ILSVRC2012-val-00046020.png
mlp_mixer_l_in21,1,747,NaN,car,oven,0,0747_sty_dnn_0_oven_00_oven-0047-ILSVRC2012-val-00047123.png
mlp_mixer_l_in21,1,748,NaN,car,oven,0,0748_sty_dnn_0_oven_00_oven-0048-ILSVRC2012-val-00048271.png
mlp_mixer_l_in21,1,749,NaN,bird,oven,0,0749_sty_dnn_0_oven_00_oven-0049-ILSVRC2012-val-00048848.png
mlp_mixer_l_in21,1,750,NaN,car,oven,0,0750_sty_dnn_0_oven_00_oven-0050-ILSVRC2012-val-00049391.png
mlp_mixer_l_in21,1,751,NaN,bird,truck,0,0751_sty_dnn_0_truck_00_truck-0018-ILSVRC2012-val-00016650.png
mlp_mixer_l_in21,1,752,NaN,bird,truck,0,0752_sty_dnn_0_truck_00_truck-0019-ILSVRC2012-val-00019954.png
mlp_mixer_l_in21,1,753,NaN,truck,truck,0,0753_sty_dnn_0_truck_00_truck-0022-ILSVRC2012-val-00023423.png
mlp_mixer_l_in21,1,754,NaN,car,truck,0,0754_sty_dnn_0_truck_00_truck-0027-ILSVRC2012-val-00025838.png
mlp_mixer_l_in21,1,755,NaN,oven,truck,0,0755_sty_dnn_0_truck_00_truck-0028-ILSVRC2012-val-00028536.png
mlp_mixer_l_in21,1,756,NaN,bird,truck,0,0756_sty_dnn_0_truck_00_truck-0034-ILSVRC2012-val-00034340.png
mlp_mixer_l_in21,1,757,NaN,bird,truck,0,0757_sty_dnn_0_truck_00_truck-0047-ILSVRC2012-val-00047588.png
mlp_mixer_l_in21,1,758,NaN,bird,truck,0,0758_sty_dnn_0_truck_00_truck-0048-ILSVRC2012-val-00047888.png
mlp_mixer_l_in21,1,759,NaN,dog,truck,0,0759_sty_dnn_0_truck_00_truck-0051-ILSVRC2012-val-00001144.png
mlp_mixer_l_in21,1,760,NaN,bird,truck,0,0760_sty_dnn_0_truck_00_truck-0054-ILSVRC2012-val-00004119.png
mlp_mixer_l_in21,1,761,NaN,bird,truck,0,0761_sty_dnn_0_truck_00_truck-0060-ILSVRC2012-val-00007519.png
mlp_mixer_l_in21,1,762,NaN,oven,truck,0,0762_sty_dnn_0_truck_00_truck-0065-ILSVRC2012-val-00013925.png
mlp_mixer_l_in21,1,763,NaN,bird,truck,0,0763_sty_dnn_0_truck_00_truck-0070-ILSVRC2012-val-00021253.png
mlp_mixer_l_in21,1,764,NaN,bird,truck,0,0764_sty_dnn_0_truck_00_truck-0079-ILSVRC2012-val-00028914.png
mlp_mixer_l_in21,1,765,NaN,bird,truck,0,0765_sty_dnn_0_truck_00_truck-0084-ILSVRC2012-val-00034001.png
mlp_mixer_l_in21,1,766,NaN,bird,truck,0,0766_sty_dnn_0_truck_00_truck-0094-ILSVRC2012-val-00042802.png
mlp_mixer_l_in21,1,767,NaN,bird,truck,0,0767_sty_dnn_0_truck_00_truck-0096-ILSVRC2012-val-00044888.png
mlp_mixer_l_in21,1,768,NaN,bird,truck,0,0768_sty_dnn_0_truck_00_truck-0103-ILSVRC2012-val-00004552.png
mlp_mixer_l_in21,1,769,NaN,chair,truck,0,0769_sty_dnn_0_truck_00_truck-0107-ILSVRC2012-val-00007374.png
mlp_mixer_l_in21,1,770,NaN,bird,truck,0,0770_sty_dnn_0_truck_00_truck-0112-ILSVRC2012-val-00013466.png
mlp_mixer_l_in21,1,771,NaN,bird,truck,0,0771_sty_dnn_0_truck_00_truck-0116-ILSVRC2012-val-00016053.png
mlp_mixer_l_in21,1,772,NaN,car,truck,0,0772_sty_dnn_0_truck_00_truck-0120-ILSVRC2012-val-00018360.png
mlp_mixer_l_in21,1,773,NaN,chair,truck,0,0773_sty_dnn_0_truck_00_truck-0121-ILSVRC2012-val-00018768.png
mlp_mixer_l_in21,1,774,NaN,bird,truck,0,0774_sty_dnn_0_truck_00_truck-0134-ILSVRC2012-val-00035864.png
mlp_mixer_l_in21,1,775,NaN,oven,truck,0,0775_sty_dnn_0_truck_00_truck-0136-ILSVRC2012-val-00037829.png
mlp_mixer_l_in21,1,776,NaN,bird,truck,0,0776_sty_dnn_0_truck_00_truck-0142-ILSVRC2012-val-00043939.png
mlp_mixer_l_in21,1,777,NaN,dog,truck,0,0777_sty_dnn_0_truck_00_truck-0177-ILSVRC2012-val-00027892.png
mlp_mixer_l_in21,1,778,NaN,chair,truck,0,0778_sty_dnn_0_truck_00_truck-0184-ILSVRC2012-val-00032494.png
mlp_mixer_l_in21,1,779,NaN,bird,truck,0,0779_sty_dnn_0_truck_00_truck-0185-ILSVRC2012-val-00033804.png
mlp_mixer_l_in21,1,780,NaN,car,truck,0,0780_sty_dnn_0_truck_00_truck-0192-ILSVRC2012-val-00042157.png
mlp_mixer_l_in21,1,781,NaN,bird,truck,0,0781_sty_dnn_0_truck_00_truck-0194-ILSVRC2012-val-00042924.png
mlp_mixer_l_in21,1,782,NaN,bird,truck,0,0782_sty_dnn_0_truck_00_truck-0196-ILSVRC2012-val-00044805.png
mlp_mixer_l_in21,1,783,NaN,oven,truck,0,0783_sty_dnn_0_truck_00_truck-0200-ILSVRC2012-val-00048418.png
mlp_mixer_l_in21,1,784,NaN,bicycle,truck,0,0784_sty_dnn_0_truck_00_truck-0213-ILSVRC2012-val-00016098.png
mlp_mixer_l_in21,1,785,NaN,elephant,truck,0,0785_sty_dnn_0_truck_00_truck-0215-ILSVRC2012-val-00017360.png
mlp_mixer_l_in21,1,786,NaN,bird,truck,0,0786_sty_dnn_0_truck_00_truck-0219-ILSVRC2012-val-00021802.png
mlp_mixer_l_in21,1,787,NaN,bird,truck,0,0787_sty_dnn_0_truck_00_truck-0225-ILSVRC2012-val-00026079.png
mlp_mixer_l_in21,1,788,NaN,bird,truck,0,0788_sty_dnn_0_truck_00_truck-0265-ILSVRC2012-val-00010166.png
mlp_mixer_l_in21,1,789,NaN,bird,truck,0,0789_sty_dnn_0_truck_00_truck-0274-ILSVRC2012-val-00021717.png
mlp_mixer_l_in21,1,790,NaN,bird,truck,0,0790_sty_dnn_0_truck_00_truck-0284-ILSVRC2012-val-00030765.png
mlp_mixer_l_in21,1,791,NaN,bird,truck,0,0791_sty_dnn_0_truck_00_truck-0301-ILSVRC2012-val-00000671.png
mlp_mixer_l_in21,1,792,NaN,bird,truck,0,0792_sty_dnn_0_truck_00_truck-0307-ILSVRC2012-val-00012703.png
mlp_mixer_l_in21,1,793,NaN,elephant,truck,0,0793_sty_dnn_0_truck_00_truck-0310-ILSVRC2012-val-00016077.png
mlp_mixer_l_in21,1,794,NaN,bird,truck,0,0794_sty_dnn_0_truck_00_truck-0315-ILSVRC2012-val-00021882.png
mlp_mixer_l_in21,1,795,NaN,car,truck,0,0795_sty_dnn_0_truck_00_truck-0329-ILSVRC2012-val-00029413.png
mlp_mixer_l_in21,1,796,NaN,boat,truck,0,0796_sty_dnn_0_truck_00_truck-0330-ILSVRC2012-val-00031256.png
mlp_mixer_l_in21,1,797,NaN,dog,truck,0,0797_sty_dnn_0_truck_00_truck-0335-ILSVRC2012-val-00039723.png
mlp_mixer_l_in21,1,798,NaN,clock,truck,0,0798_sty_dnn_0_truck_00_truck-0358-ILSVRC2012-val-00010556.png
mlp_mixer_l_in21,1,799,NaN,bird,truck,0,0799_sty_dnn_0_truck_00_truck-0368-ILSVRC2012-val-00016410.png
mlp_mixer_l_in21,1,800,NaN,bear,truck,0,0800_sty_dnn_0_truck_00_truck-0373-ILSVRC2012-val-00019053.png
