subj,session,trial,rt,object_response,category,condition,imagename
dino_v8,1,1,NaN,knife,airplane,NaN,airplane1-bicycle2.png
dino_v8,1,2,NaN,chair,airplane,NaN,airplane1-chair2.png
dino_v8,1,3,NaN,bear,airplane,NaN,airplane1-clock1.png
dino_v8,1,4,NaN,bear,airplane,NaN,airplane1-elephant1.png
dino_v8,1,5,NaN,clock,airplane,NaN,airplane10-airplane1.png
dino_v8,1,6,NaN,car,airplane,NaN,airplane10-bear3.png
dino_v8,1,7,NaN,dog,airplane,NaN,airplane10-boat3.png
dino_v8,1,8,NaN,clock,airplane,NaN,airplane10-car3.png
dino_v8,1,9,NaN,airplane,airplane,NaN,airplane10-cat2.png
dino_v8,1,10,NaN,chair,airplane,NaN,airplane10-dog3.png
dino_v8,1,11,NaN,bird,airplane,NaN,airplane10-elephant1.png
dino_v8,1,12,NaN,oven,airplane,NaN,airplane10-knife3.png
dino_v8,1,13,NaN,oven,airplane,NaN,airplane10-oven2.png
dino_v8,1,14,NaN,clock,airplane,NaN,airplane10-truck1.png
dino_v8,1,15,NaN,knife,airplane,NaN,airplane2-bear1.png
dino_v8,1,16,NaN,dog,airplane,NaN,airplane2-bicycle1.png
dino_v8,1,17,NaN,knife,airplane,NaN,airplane2-bird3.png
dino_v8,1,18,NaN,clock,airplane,NaN,airplane2-bottle1.png
dino_v8,1,19,NaN,bicycle,airplane,NaN,airplane2-cat1.png
dino_v8,1,20,NaN,chair,airplane,NaN,airplane2-dog1.png
dino_v8,1,21,NaN,oven,airplane,NaN,airplane3-airplane2.png
dino_v8,1,22,NaN,bear,airplane,NaN,airplane3-car1.png
dino_v8,1,23,NaN,bicycle,airplane,NaN,airplane3-cat1.png
dino_v8,1,24,NaN,oven,airplane,NaN,airplane3-chair3.png
dino_v8,1,25,NaN,bear,airplane,NaN,airplane3-clock1.png
dino_v8,1,26,NaN,chair,airplane,NaN,airplane3-dog1.png
dino_v8,1,27,NaN,bird,airplane,NaN,airplane3-elephant1.png
dino_v8,1,28,NaN,airplane,airplane,NaN,airplane3-keyboard2.png
dino_v8,1,29,NaN,boat,airplane,NaN,airplane3-oven1.png
dino_v8,1,30,NaN,bear,airplane,NaN,airplane4-airplane1.png
dino_v8,1,31,NaN,car,airplane,NaN,airplane4-bear3.png
dino_v8,1,32,NaN,bear,airplane,NaN,airplane4-bicycle2.png
dino_v8,1,33,NaN,bottle,airplane,NaN,airplane4-bird3.png
dino_v8,1,34,NaN,oven,airplane,NaN,airplane4-boat3.png
dino_v8,1,35,NaN,cat,airplane,NaN,airplane4-bottle1.png
dino_v8,1,36,NaN,bear,airplane,NaN,airplane4-car1.png
dino_v8,1,37,NaN,oven,airplane,NaN,airplane4-cat3.png
dino_v8,1,38,NaN,chair,airplane,NaN,airplane4-dog2.png
dino_v8,1,39,NaN,bear,airplane,NaN,airplane4-elephant1.png
dino_v8,1,40,NaN,oven,airplane,NaN,airplane4-keyboard3.png
dino_v8,1,41,NaN,bear,airplane,NaN,airplane4-knife1.png
dino_v8,1,42,NaN,boat,airplane,NaN,airplane4-truck2.png
dino_v8,1,43,NaN,car,airplane,NaN,airplane5-bear2.png
dino_v8,1,44,NaN,cat,airplane,NaN,airplane5-bicycle1.png
dino_v8,1,45,NaN,cat,airplane,NaN,airplane5-bird2.png
dino_v8,1,46,NaN,dog,airplane,NaN,airplane5-boat3.png
dino_v8,1,47,NaN,bear,airplane,NaN,airplane5-bottle3.png
dino_v8,1,48,NaN,oven,airplane,NaN,airplane5-chair3.png
dino_v8,1,49,NaN,bottle,airplane,NaN,airplane5-dog3.png
dino_v8,1,50,NaN,keyboard,airplane,NaN,airplane5-knife1.png
dino_v8,1,51,NaN,oven,airplane,NaN,airplane5-oven3.png
dino_v8,1,52,NaN,car,airplane,NaN,airplane6-bear3.png
dino_v8,1,53,NaN,clock,airplane,NaN,airplane6-bottle2.png
dino_v8,1,54,NaN,oven,airplane,NaN,airplane6-chair3.png
dino_v8,1,55,NaN,oven,airplane,NaN,airplane6-keyboard3.png
dino_v8,1,56,NaN,keyboard,airplane,NaN,airplane6-knife1.png
dino_v8,1,57,NaN,keyboard,airplane,NaN,airplane7-airplane3.png
dino_v8,1,58,NaN,knife,airplane,NaN,airplane7-bird3.png
dino_v8,1,59,NaN,cat,airplane,NaN,airplane7-boat2.png
dino_v8,1,60,NaN,bear,airplane,NaN,airplane7-bottle3.png
dino_v8,1,61,NaN,bear,airplane,NaN,airplane7-car1.png
dino_v8,1,62,NaN,bicycle,airplane,NaN,airplane7-cat3.png
dino_v8,1,63,NaN,clock,airplane,NaN,airplane7-clock3.png
dino_v8,1,64,NaN,airplane,airplane,NaN,airplane7-keyboard1.png
dino_v8,1,65,NaN,clock,airplane,NaN,airplane7-truck1.png
dino_v8,1,66,NaN,knife,airplane,NaN,airplane8-bicycle3.png
dino_v8,1,67,NaN,bottle,airplane,NaN,airplane8-bird1.png
dino_v8,1,68,NaN,clock,airplane,NaN,airplane8-chair1.png
dino_v8,1,69,NaN,clock,airplane,NaN,airplane8-clock2.png
dino_v8,1,70,NaN,bear,airplane,NaN,airplane8-elephant3.png
dino_v8,1,71,NaN,boat,airplane,NaN,airplane8-oven2.png
dino_v8,1,72,NaN,boat,airplane,NaN,airplane8-truck3.png
dino_v8,1,73,NaN,oven,airplane,NaN,airplane9-airplane2.png
dino_v8,1,74,NaN,clock,airplane,NaN,airplane9-boat1.png
dino_v8,1,75,NaN,clock,airplane,NaN,airplane9-car2.png
dino_v8,1,76,NaN,bear,airplane,NaN,airplane9-clock1.png
dino_v8,1,77,NaN,oven,airplane,NaN,airplane9-keyboard2.png
dino_v8,1,78,NaN,oven,airplane,NaN,airplane9-knife3.png
dino_v8,1,79,NaN,boat,airplane,NaN,airplane9-oven2.png
dino_v8,1,80,NaN,clock,airplane,NaN,airplane9-truck1.png
dino_v8,1,81,NaN,airplane,bear,NaN,bear1-airplane3.png
dino_v8,1,82,NaN,car,bear,NaN,bear1-bear3.png
dino_v8,1,83,NaN,knife,bear,NaN,bear1-bicycle3.png
dino_v8,1,84,NaN,knife,bear,NaN,bear1-bird2.png
dino_v8,1,85,NaN,cat,bear,NaN,bear1-chair2.png
dino_v8,1,86,NaN,clock,bear,NaN,bear1-clock2.png
dino_v8,1,87,NaN,bear,bear,NaN,bear1-elephant1.png
dino_v8,1,88,NaN,car,bear,NaN,bear10-bear2.png
dino_v8,1,89,NaN,cat,bear,NaN,bear10-bottle1.png
dino_v8,1,90,NaN,clock,bear,NaN,bear10-car2.png
dino_v8,1,91,NaN,airplane,bear,NaN,bear10-cat2.png
dino_v8,1,92,NaN,clock,bear,NaN,bear10-chair2.png
dino_v8,1,93,NaN,bear,bear,NaN,bear10-clock1.png
dino_v8,1,94,NaN,bird,bear,NaN,bear10-elephant1.png
dino_v8,1,95,NaN,oven,bear,NaN,bear10-keyboard3.png
dino_v8,1,96,NaN,clock,bear,NaN,bear10-knife2.png
dino_v8,1,97,NaN,oven,bear,NaN,bear10-oven1.png
dino_v8,1,98,NaN,clock,bear,NaN,bear10-truck1.png
dino_v8,1,99,NaN,bear,bear,NaN,bear2-airplane1.png
dino_v8,1,100,NaN,knife,bear,NaN,bear2-bird3.png
dino_v8,1,101,NaN,clock,bear,NaN,bear2-car2.png
dino_v8,1,102,NaN,clock,bear,NaN,bear2-cat2.png
dino_v8,1,103,NaN,chair,bear,NaN,bear2-dog1.png
dino_v8,1,104,NaN,bear,bear,NaN,bear2-elephant1.png
dino_v8,1,105,NaN,airplane,bear,NaN,bear2-keyboard2.png
dino_v8,1,106,NaN,keyboard,bear,NaN,bear2-knife2.png
dino_v8,1,107,NaN,bottle,bear,NaN,bear2-oven1.png
dino_v8,1,108,NaN,clock,bear,NaN,bear3-airplane1.png
dino_v8,1,109,NaN,knife,bear,NaN,bear3-bicycle2.png
dino_v8,1,110,NaN,elephant,bear,NaN,bear3-bird3.png
dino_v8,1,111,NaN,keyboard,bear,NaN,bear3-car2.png
dino_v8,1,112,NaN,chair,bear,NaN,bear3-cat1.png
dino_v8,1,113,NaN,clock,bear,NaN,bear3-chair2.png
dino_v8,1,114,NaN,bottle,bear,NaN,bear3-dog3.png
dino_v8,1,115,NaN,airplane,bear,NaN,bear3-keyboard2.png
dino_v8,1,116,NaN,oven,bear,NaN,bear3-truck3.png
dino_v8,1,117,NaN,chair,bear,NaN,bear4-boat2.png
dino_v8,1,118,NaN,keyboard,bear,NaN,bear4-car3.png
dino_v8,1,119,NaN,bicycle,bear,NaN,bear4-cat3.png
dino_v8,1,120,NaN,clock,bear,NaN,bear4-clock3.png
dino_v8,1,121,NaN,clock,bear,NaN,bear4-elephant2.png
dino_v8,1,122,NaN,oven,bear,NaN,bear4-keyboard3.png
dino_v8,1,123,NaN,bear,bear,NaN,bear4-knife1.png
dino_v8,1,124,NaN,boat,bear,NaN,bear4-oven2.png
dino_v8,1,125,NaN,boat,bear,NaN,bear4-truck3.png
dino_v8,1,126,NaN,airplane,bear,NaN,bear5-airplane3.png
dino_v8,1,127,NaN,knife,bear,NaN,bear5-bicycle3.png
dino_v8,1,128,NaN,bottle,bear,NaN,bear5-bird1.png
dino_v8,1,129,NaN,clock,bear,NaN,bear5-boat2.png
dino_v8,1,130,NaN,cat,bear,NaN,bear5-bottle1.png
dino_v8,1,131,NaN,oven,bear,NaN,bear5-chair1.png
dino_v8,1,132,NaN,oven,bear,NaN,bear5-oven3.png
dino_v8,1,133,NaN,bicycle,bear,NaN,bear6-bear1.png
dino_v8,1,134,NaN,knife,bear,NaN,bear6-bird2.png
dino_v8,1,135,NaN,dog,bear,NaN,bear6-boat3.png
dino_v8,1,136,NaN,bear,bear,NaN,bear6-bottle3.png
dino_v8,1,137,NaN,bottle,bear,NaN,bear6-car2.png
dino_v8,1,138,NaN,clock,bear,NaN,bear6-cat3.png
dino_v8,1,139,NaN,oven,bear,NaN,bear6-chair1.png
dino_v8,1,140,NaN,bear,bear,NaN,bear6-clock1.png
dino_v8,1,141,NaN,airplane,bear,NaN,bear7-bear2.png
dino_v8,1,142,NaN,bear,bear,NaN,bear7-bicycle2.png
dino_v8,1,143,NaN,bear,bear,NaN,bear7-clock1.png
dino_v8,1,144,NaN,clock,bear,NaN,bear7-dog3.png
dino_v8,1,145,NaN,oven,bear,NaN,bear7-oven3.png
dino_v8,1,146,NaN,clock,bear,NaN,bear7-truck1.png
dino_v8,1,147,NaN,clock,bear,NaN,bear8-airplane1.png
dino_v8,1,148,NaN,knife,bear,NaN,bear8-bear1.png
dino_v8,1,149,NaN,knife,bear,NaN,bear8-bicycle3.png
dino_v8,1,150,NaN,clock,bear,NaN,bear8-boat2.png
dino_v8,1,151,NaN,cat,bear,NaN,bear8-bottle1.png
dino_v8,1,152,NaN,chair,bear,NaN,bear8-dog1.png
dino_v8,1,153,NaN,clock,bear,NaN,bear8-elephant2.png
dino_v8,1,154,NaN,oven,bear,NaN,bear8-knife3.png
dino_v8,1,155,NaN,oven,bear,NaN,bear8-truck3.png
dino_v8,1,156,NaN,clock,bear,NaN,bear9-boat2.png
dino_v8,1,157,NaN,clock,bear,NaN,bear9-bottle2.png
dino_v8,1,158,NaN,chair,bear,NaN,bear9-dog1.png
dino_v8,1,159,NaN,airplane,bear,NaN,bear9-keyboard3.png
dino_v8,1,160,NaN,keyboard,bear,NaN,bear9-knife2.png
dino_v8,1,161,NaN,keyboard,bicycle,NaN,bicycle1-airplane2.png
dino_v8,1,162,NaN,chair,bicycle,NaN,bicycle1-bear1.png
dino_v8,1,163,NaN,knife,bicycle,NaN,bicycle1-bicycle3.png
dino_v8,1,164,NaN,bottle,bicycle,NaN,bicycle1-bird1.png
dino_v8,1,165,NaN,clock,bicycle,NaN,bicycle1-boat3.png
dino_v8,1,166,NaN,bear,bicycle,NaN,bicycle1-bottle3.png
dino_v8,1,167,NaN,keyboard,bicycle,NaN,bicycle1-chair1.png
dino_v8,1,168,NaN,clock,bicycle,NaN,bicycle1-clock3.png
dino_v8,1,169,NaN,oven,bicycle,NaN,bicycle1-dog3.png
dino_v8,1,170,NaN,clock,bicycle,NaN,bicycle1-elephant2.png
dino_v8,1,171,NaN,oven,bicycle,NaN,bicycle1-knife3.png
dino_v8,1,172,NaN,oven,bicycle,NaN,bicycle1-oven1.png
dino_v8,1,173,NaN,keyboard,bicycle,NaN,bicycle1-truck1.png
dino_v8,1,174,NaN,keyboard,bicycle,NaN,bicycle10-airplane2.png
dino_v8,1,175,NaN,bicycle,bicycle,NaN,bicycle10-boat3.png
dino_v8,1,176,NaN,bicycle,bicycle,NaN,bicycle10-clock2.png
dino_v8,1,177,NaN,oven,bicycle,NaN,bicycle10-dog3.png
dino_v8,1,178,NaN,clock,bicycle,NaN,bicycle10-elephant2.png
dino_v8,1,179,NaN,knife,bicycle,NaN,bicycle2-bicycle1.png
dino_v8,1,180,NaN,bottle,bicycle,NaN,bicycle2-bird3.png
dino_v8,1,181,NaN,cat,bicycle,NaN,bicycle2-bottle1.png
dino_v8,1,182,NaN,keyboard,bicycle,NaN,bicycle2-car2.png
dino_v8,1,183,NaN,chair,bicycle,NaN,bicycle2-dog1.png
dino_v8,1,184,NaN,airplane,bicycle,NaN,bicycle2-keyboard2.png
dino_v8,1,185,NaN,keyboard,bicycle,NaN,bicycle2-knife2.png
dino_v8,1,186,NaN,bottle,bicycle,NaN,bicycle3-bird1.png
dino_v8,1,187,NaN,clock,bicycle,NaN,bicycle3-elephant2.png
dino_v8,1,188,NaN,cat,bicycle,NaN,bicycle3-keyboard1.png
dino_v8,1,189,NaN,oven,bicycle,NaN,bicycle3-oven3.png
dino_v8,1,190,NaN,boat,bicycle,NaN,bicycle3-truck3.png
dino_v8,1,191,NaN,keyboard,bicycle,NaN,bicycle4-airplane1.png
dino_v8,1,192,NaN,knife,bicycle,NaN,bicycle4-bicycle3.png
dino_v8,1,193,NaN,keyboard,bicycle,NaN,bicycle4-boat1.png
dino_v8,1,194,NaN,cat,bicycle,NaN,bicycle4-bottle1.png
dino_v8,1,195,NaN,keyboard,bicycle,NaN,bicycle4-car2.png
dino_v8,1,196,NaN,bottle,bicycle,NaN,bicycle4-cat1.png
dino_v8,1,197,NaN,chair,bicycle,NaN,bicycle4-chair2.png
dino_v8,1,198,NaN,clock,bicycle,NaN,bicycle4-clock3.png
dino_v8,1,199,NaN,airplane,bicycle,NaN,bicycle4-keyboard3.png
dino_v8,1,200,NaN,oven,bicycle,NaN,bicycle4-knife3.png
dino_v8,1,201,NaN,oven,bicycle,NaN,bicycle4-oven3.png
dino_v8,1,202,NaN,boat,bicycle,NaN,bicycle4-truck3.png
dino_v8,1,203,NaN,knife,bicycle,NaN,bicycle5-bear1.png
dino_v8,1,204,NaN,bear,bicycle,NaN,bicycle5-bottle3.png
dino_v8,1,205,NaN,keyboard,bicycle,NaN,bicycle5-car3.png
dino_v8,1,206,NaN,bottle,bicycle,NaN,bicycle5-cat1.png
dino_v8,1,207,NaN,cat,bicycle,NaN,bicycle5-chair2.png
dino_v8,1,208,NaN,chair,bicycle,NaN,bicycle5-dog2.png
dino_v8,1,209,NaN,bear,bicycle,NaN,bicycle5-elephant1.png
dino_v8,1,210,NaN,airplane,bicycle,NaN,bicycle5-keyboard3.png
dino_v8,1,211,NaN,oven,bicycle,NaN,bicycle5-oven3.png
dino_v8,1,212,NaN,oven,bicycle,NaN,bicycle6-airplane2.png
dino_v8,1,213,NaN,knife,bicycle,NaN,bicycle6-bicycle3.png
dino_v8,1,214,NaN,dog,bicycle,NaN,bicycle6-boat2.png
dino_v8,1,215,NaN,clock,bicycle,NaN,bicycle6-car2.png
dino_v8,1,216,NaN,bicycle,bicycle,NaN,bicycle6-cat1.png
dino_v8,1,217,NaN,bottle,bicycle,NaN,bicycle6-dog2.png
dino_v8,1,218,NaN,airplane,bicycle,NaN,bicycle7-bear2.png
dino_v8,1,219,NaN,knife,bicycle,NaN,bicycle7-bicycle2.png
dino_v8,1,220,NaN,chair,bicycle,NaN,bicycle7-cat1.png
dino_v8,1,221,NaN,clock,bicycle,NaN,bicycle7-clock3.png
dino_v8,1,222,NaN,clock,bicycle,NaN,bicycle7-elephant2.png
dino_v8,1,223,NaN,keyboard,bicycle,NaN,bicycle7-knife2.png
dino_v8,1,224,NaN,oven,bicycle,NaN,bicycle7-oven1.png
dino_v8,1,225,NaN,boat,bicycle,NaN,bicycle7-truck3.png
dino_v8,1,226,NaN,knife,bicycle,NaN,bicycle8-bear2.png
dino_v8,1,227,NaN,knife,bicycle,NaN,bicycle8-bird2.png
dino_v8,1,228,NaN,keyboard,bicycle,NaN,bicycle8-boat1.png
dino_v8,1,229,NaN,chair,bicycle,NaN,bicycle8-chair2.png
dino_v8,1,230,NaN,clock,bicycle,NaN,bicycle8-clock3.png
dino_v8,1,231,NaN,clock,bicycle,NaN,bicycle8-truck1.png
dino_v8,1,232,NaN,keyboard,bicycle,NaN,bicycle9-airplane2.png
dino_v8,1,233,NaN,knife,bicycle,NaN,bicycle9-bear1.png
dino_v8,1,234,NaN,knife,bicycle,NaN,bicycle9-bird3.png
dino_v8,1,235,NaN,cat,bicycle,NaN,bicycle9-bottle1.png
dino_v8,1,236,NaN,keyboard,bicycle,NaN,bicycle9-car1.png
dino_v8,1,237,NaN,bottle,bicycle,NaN,bicycle9-cat3.png
dino_v8,1,238,NaN,keyboard,bicycle,NaN,bicycle9-chair1.png
dino_v8,1,239,NaN,airplane,bicycle,NaN,bicycle9-keyboard3.png
dino_v8,1,240,NaN,oven,bicycle,NaN,bicycle9-knife3.png
dino_v8,1,241,NaN,keyboard,bird,NaN,bird1-airplane2.png
dino_v8,1,242,NaN,knife,bird,NaN,bird1-bear1.png
dino_v8,1,243,NaN,cat,bird,NaN,bird1-bicycle2.png
dino_v8,1,244,NaN,keyboard,bird,NaN,bird1-boat1.png
dino_v8,1,245,NaN,dog,bird,NaN,bird1-chair2.png
dino_v8,1,246,NaN,clock,bird,NaN,bird1-clock3.png
dino_v8,1,247,NaN,clock,bird,NaN,bird1-elephant2.png
dino_v8,1,248,NaN,oven,bird,NaN,bird1-keyboard3.png
dino_v8,1,249,NaN,oven,bird,NaN,bird1-knife3.png
dino_v8,1,250,NaN,oven,bird,NaN,bird1-oven1.png
dino_v8,1,251,NaN,clock,bird,NaN,bird1-truck1.png
dino_v8,1,252,NaN,chair,bird,NaN,bird10-bear2.png
dino_v8,1,253,NaN,bicycle,bird,NaN,bird10-bicycle1.png
dino_v8,1,254,NaN,knife,bird,NaN,bird10-bird2.png
dino_v8,1,255,NaN,chair,bird,NaN,bird10-cat1.png
dino_v8,1,256,NaN,oven,bird,NaN,bird10-chair1.png
dino_v8,1,257,NaN,bicycle,bird,NaN,bird10-clock1.png
dino_v8,1,258,NaN,clock,bird,NaN,bird10-elephant2.png
dino_v8,1,259,NaN,oven,bird,NaN,bird2-airplane3.png
dino_v8,1,260,NaN,knife,bird,NaN,bird2-bird2.png
dino_v8,1,261,NaN,boat,bird,NaN,bird2-car3.png
dino_v8,1,262,NaN,clock,bird,NaN,bird2-clock3.png
dino_v8,1,263,NaN,chair,bird,NaN,bird2-dog2.png
dino_v8,1,264,NaN,bear,bird,NaN,bird2-knife1.png
dino_v8,1,265,NaN,car,bird,NaN,bird3-bear3.png
dino_v8,1,266,NaN,knife,bird,NaN,bird3-bird2.png
dino_v8,1,267,NaN,clock,bird,NaN,bird3-boat3.png
dino_v8,1,268,NaN,clock,bird,NaN,bird3-bottle2.png
dino_v8,1,269,NaN,bicycle,bird,NaN,bird3-cat1.png
dino_v8,1,270,NaN,chair,bird,NaN,bird3-dog1.png
dino_v8,1,271,NaN,oven,bird,NaN,bird3-knife3.png
dino_v8,1,272,NaN,bottle,bird,NaN,bird3-oven1.png
dino_v8,1,273,NaN,boat,bird,NaN,bird3-truck3.png
dino_v8,1,274,NaN,bear,bird,NaN,bird4-airplane1.png
dino_v8,1,275,NaN,truck,bird,NaN,bird4-bicycle2.png
dino_v8,1,276,NaN,bicycle,bird,NaN,bird4-cat3.png
dino_v8,1,277,NaN,clock,bird,NaN,bird4-clock1.png
dino_v8,1,278,NaN,chair,bird,NaN,bird4-dog3.png
dino_v8,1,279,NaN,bicycle,bird,NaN,bird5-airplane3.png
dino_v8,1,280,NaN,car,bird,NaN,bird5-bear3.png
dino_v8,1,281,NaN,keyboard,bird,NaN,bird5-bicycle1.png
dino_v8,1,282,NaN,bottle,bird,NaN,bird5-bird1.png
dino_v8,1,283,NaN,keyboard,bird,NaN,bird5-car2.png
dino_v8,1,284,NaN,airplane,bird,NaN,bird5-cat2.png
dino_v8,1,285,NaN,oven,bird,NaN,bird5-chair1.png
dino_v8,1,286,NaN,chair,bird,NaN,bird5-dog2.png
dino_v8,1,287,NaN,airplane,bird,NaN,bird5-keyboard2.png
dino_v8,1,288,NaN,oven,bird,NaN,bird5-oven3.png
dino_v8,1,289,NaN,boat,bird,NaN,bird5-truck2.png
dino_v8,1,290,NaN,oven,bird,NaN,bird6-airplane2.png
dino_v8,1,291,NaN,dog,bird,NaN,bird6-boat2.png
dino_v8,1,292,NaN,bear,bird,NaN,bird6-bottle3.png
dino_v8,1,293,NaN,keyboard,bird,NaN,bird6-car3.png
dino_v8,1,294,NaN,clock,bird,NaN,bird6-elephant2.png
dino_v8,1,295,NaN,bird,bird,NaN,bird6-oven1.png
dino_v8,1,296,NaN,boat,bird,NaN,bird6-truck2.png
dino_v8,1,297,NaN,bicycle,bird,NaN,bird7-bird2.png
dino_v8,1,298,NaN,oven,bird,NaN,bird7-boat1.png
dino_v8,1,299,NaN,clock,bird,NaN,bird7-bottle1.png
dino_v8,1,300,NaN,bear,bird,NaN,bird7-car2.png
dino_v8,1,301,NaN,bottle,bird,NaN,bird7-cat3.png
dino_v8,1,302,NaN,oven,bird,NaN,bird7-keyboard3.png
dino_v8,1,303,NaN,bicycle,bird,NaN,bird7-knife2.png
dino_v8,1,304,NaN,bicycle,bird,NaN,bird7-oven3.png
dino_v8,1,305,NaN,boat,bird,NaN,bird7-truck2.png
dino_v8,1,306,NaN,clock,bird,NaN,bird8-boat3.png
dino_v8,1,307,NaN,cat,bird,NaN,bird8-bottle1.png
dino_v8,1,308,NaN,clock,bird,NaN,bird8-car2.png
dino_v8,1,309,NaN,oven,bird,NaN,bird8-chair1.png
dino_v8,1,310,NaN,bear,bird,NaN,bird8-clock1.png
dino_v8,1,311,NaN,bird,bird,NaN,bird8-elephant1.png
dino_v8,1,312,NaN,oven,bird,NaN,bird8-keyboard2.png
dino_v8,1,313,NaN,oven,bird,NaN,bird8-knife2.png
dino_v8,1,314,NaN,car,bird,NaN,bird9-bear3.png
dino_v8,1,315,NaN,boat,bird,NaN,bird9-bicycle3.png
dino_v8,1,316,NaN,bear,bird,NaN,bird9-bottle3.png
dino_v8,1,317,NaN,oven,bird,NaN,bird9-chair1.png
dino_v8,1,318,NaN,chair,bird,NaN,bird9-dog2.png
dino_v8,1,319,NaN,clock,bird,NaN,bird9-elephant2.png
dino_v8,1,320,NaN,cat,bird,NaN,bird9-keyboard1.png
dino_v8,1,321,NaN,car,boat,NaN,boat1-bear1.png
dino_v8,1,322,NaN,cat,boat,NaN,boat1-bicycle2.png
dino_v8,1,323,NaN,knife,boat,NaN,boat1-bird3.png
dino_v8,1,324,NaN,clock,boat,NaN,boat1-car2.png
dino_v8,1,325,NaN,oven,boat,NaN,boat1-chair3.png
dino_v8,1,326,NaN,bear,boat,NaN,boat1-elephant3.png
dino_v8,1,327,NaN,airplane,boat,NaN,boat1-keyboard3.png
dino_v8,1,328,NaN,oven,boat,NaN,boat1-oven1.png
dino_v8,1,329,NaN,keyboard,boat,NaN,boat1-truck3.png
dino_v8,1,330,NaN,car,boat,NaN,boat10-bear3.png
dino_v8,1,331,NaN,keyboard,boat,NaN,boat10-boat3.png
dino_v8,1,332,NaN,chair,boat,NaN,boat10-cat1.png
dino_v8,1,333,NaN,bear,boat,NaN,boat10-oven1.png
dino_v8,1,334,NaN,clock,boat,NaN,boat10-truck1.png
dino_v8,1,335,NaN,clock,boat,NaN,boat2-airplane1.png
dino_v8,1,336,NaN,car,boat,NaN,boat2-bear3.png
dino_v8,1,337,NaN,bottle,boat,NaN,boat2-bird1.png
dino_v8,1,338,NaN,clock,boat,NaN,boat2-bottle2.png
dino_v8,1,339,NaN,airplane,boat,NaN,boat2-keyboard1.png
dino_v8,1,340,NaN,oven,boat,NaN,boat2-oven3.png
dino_v8,1,341,NaN,keyboard,boat,NaN,boat3-airplane2.png
dino_v8,1,342,NaN,truck,boat,NaN,boat3-bicycle2.png
dino_v8,1,343,NaN,keyboard,boat,NaN,boat3-car3.png
dino_v8,1,344,NaN,bicycle,boat,NaN,boat3-cat3.png
dino_v8,1,345,NaN,oven,boat,NaN,boat3-chair3.png
dino_v8,1,346,NaN,clock,boat,NaN,boat3-clock3.png
dino_v8,1,347,NaN,clock,boat,NaN,boat3-dog3.png
dino_v8,1,348,NaN,airplane,boat,NaN,boat3-keyboard2.png
dino_v8,1,349,NaN,clock,boat,NaN,boat4-bicycle3.png
dino_v8,1,350,NaN,clock,boat,NaN,boat4-bird1.png
dino_v8,1,351,NaN,clock,boat,NaN,boat4-boat3.png
dino_v8,1,352,NaN,clock,boat,NaN,boat4-bottle2.png
dino_v8,1,353,NaN,keyboard,boat,NaN,boat4-car3.png
dino_v8,1,354,NaN,cat,boat,NaN,boat4-chair2.png
dino_v8,1,355,NaN,chair,boat,NaN,boat4-dog2.png
dino_v8,1,356,NaN,bird,boat,NaN,boat4-elephant2.png
dino_v8,1,357,NaN,cat,boat,NaN,boat4-knife2.png
dino_v8,1,358,NaN,bear,boat,NaN,boat5-airplane1.png
dino_v8,1,359,NaN,bear,boat,NaN,boat5-bicycle3.png
dino_v8,1,360,NaN,clock,boat,NaN,boat5-boat3.png
dino_v8,1,361,NaN,keyboard,boat,NaN,boat5-car3.png
dino_v8,1,362,NaN,bear,boat,NaN,boat5-clock3.png
dino_v8,1,363,NaN,oven,boat,NaN,boat5-knife2.png
dino_v8,1,364,NaN,oven,boat,NaN,boat6-airplane2.png
dino_v8,1,365,NaN,knife,boat,NaN,boat6-bear1.png
dino_v8,1,366,NaN,knife,boat,NaN,boat6-bicycle2.png
dino_v8,1,367,NaN,clock,boat,NaN,boat6-bottle2.png
dino_v8,1,368,NaN,bear,boat,NaN,boat6-car1.png
dino_v8,1,369,NaN,chair,boat,NaN,boat6-cat1.png
dino_v8,1,370,NaN,clock,boat,NaN,boat6-clock2.png
dino_v8,1,371,NaN,chair,boat,NaN,boat6-dog1.png
dino_v8,1,372,NaN,clock,boat,NaN,boat6-elephant2.png
dino_v8,1,373,NaN,oven,boat,NaN,boat6-knife2.png
dino_v8,1,374,NaN,boat,boat,NaN,boat6-truck3.png
dino_v8,1,375,NaN,clock,boat,NaN,boat7-boat2.png
dino_v8,1,376,NaN,cat,boat,NaN,boat7-bottle1.png
dino_v8,1,377,NaN,bicycle,boat,NaN,boat7-cat3.png
dino_v8,1,378,NaN,oven,boat,NaN,boat7-chair1.png
dino_v8,1,379,NaN,clock,boat,NaN,boat7-clock3.png
dino_v8,1,380,NaN,bear,boat,NaN,boat7-elephant3.png
dino_v8,1,381,NaN,oven,boat,NaN,boat7-keyboard3.png
dino_v8,1,382,NaN,oven,boat,NaN,boat7-oven3.png
dino_v8,1,383,NaN,boat,boat,NaN,boat7-truck2.png
dino_v8,1,384,NaN,cat,boat,NaN,boat8-bird2.png
dino_v8,1,385,NaN,cat,boat,NaN,boat8-bottle1.png
dino_v8,1,386,NaN,bottle,boat,NaN,boat8-dog3.png
dino_v8,1,387,NaN,bear,boat,NaN,boat8-elephant1.png
dino_v8,1,388,NaN,oven,boat,NaN,boat8-knife1.png
dino_v8,1,389,NaN,bottle,boat,NaN,boat8-oven1.png
dino_v8,1,390,NaN,boat,boat,NaN,boat8-truck2.png
dino_v8,1,391,NaN,oven,boat,NaN,boat9-airplane2.png
dino_v8,1,392,NaN,car,boat,NaN,boat9-bear3.png
dino_v8,1,393,NaN,oven,boat,NaN,boat9-bird1.png
dino_v8,1,394,NaN,cat,boat,NaN,boat9-boat3.png
dino_v8,1,395,NaN,clock,boat,NaN,boat9-cat3.png
dino_v8,1,396,NaN,cat,boat,NaN,boat9-chair2.png
dino_v8,1,397,NaN,bear,boat,NaN,boat9-clock1.png
dino_v8,1,398,NaN,bottle,boat,NaN,boat9-dog2.png
dino_v8,1,399,NaN,airplane,boat,NaN,boat9-keyboard2.png
dino_v8,1,400,NaN,oven,boat,NaN,boat9-knife2.png
dino_v8,1,401,NaN,bicycle,bottle,NaN,bottle1-bear1.png
dino_v8,1,402,NaN,bottle,bottle,NaN,bottle1-bird3.png
dino_v8,1,403,NaN,bear,bottle,NaN,bottle1-car1.png
dino_v8,1,404,NaN,clock,bottle,NaN,bottle1-cat3.png
dino_v8,1,405,NaN,chair,bottle,NaN,bottle1-chair2.png
dino_v8,1,406,NaN,clock,bottle,NaN,bottle1-clock1.png
dino_v8,1,407,NaN,chair,bottle,NaN,bottle1-dog2.png
dino_v8,1,408,NaN,oven,bottle,NaN,bottle1-keyboard3.png
dino_v8,1,409,NaN,airplane,bottle,NaN,bottle10-bear2.png
dino_v8,1,410,NaN,boat,bottle,NaN,bottle10-boat3.png
dino_v8,1,411,NaN,keyboard,bottle,NaN,bottle10-car1.png
dino_v8,1,412,NaN,clock,bottle,NaN,bottle10-clock2.png
dino_v8,1,413,NaN,chair,bottle,NaN,bottle10-dog1.png
dino_v8,1,414,NaN,boat,bottle,NaN,bottle10-truck3.png
dino_v8,1,415,NaN,bear,bottle,NaN,bottle2-bottle3.png
dino_v8,1,416,NaN,clock,bottle,NaN,bottle2-car2.png
dino_v8,1,417,NaN,oven,bottle,NaN,bottle2-chair3.png
dino_v8,1,418,NaN,bear,bottle,NaN,bottle2-clock1.png
dino_v8,1,419,NaN,bear,bottle,NaN,bottle2-elephant1.png
dino_v8,1,420,NaN,oven,bottle,NaN,bottle2-knife3.png
dino_v8,1,421,NaN,keyboard,bottle,NaN,bottle3-airplane2.png
dino_v8,1,422,NaN,chair,bottle,NaN,bottle3-bear2.png
dino_v8,1,423,NaN,boat,bottle,NaN,bottle3-bicycle3.png
dino_v8,1,424,NaN,bottle,bottle,NaN,bottle3-bird1.png
dino_v8,1,425,NaN,dog,bottle,NaN,bottle3-boat3.png
dino_v8,1,426,NaN,bear,bottle,NaN,bottle3-bottle3.png
dino_v8,1,427,NaN,clock,bottle,NaN,bottle3-cat3.png
dino_v8,1,428,NaN,oven,bottle,NaN,bottle3-chair3.png
dino_v8,1,429,NaN,oven,bottle,NaN,bottle3-knife3.png
dino_v8,1,430,NaN,bear,bottle,NaN,bottle4-airplane1.png
dino_v8,1,431,NaN,keyboard,bottle,NaN,bottle4-bicycle1.png
dino_v8,1,432,NaN,keyboard,bottle,NaN,bottle4-car3.png
dino_v8,1,433,NaN,bottle,bottle,NaN,bottle4-dog2.png
dino_v8,1,434,NaN,boat,bottle,NaN,bottle4-oven2.png
dino_v8,1,435,NaN,clock,bottle,NaN,bottle4-truck1.png
dino_v8,1,436,NaN,clock,bottle,NaN,bottle5-airplane1.png
dino_v8,1,437,NaN,bottle,bottle,NaN,bottle5-bird3.png
dino_v8,1,438,NaN,keyboard,bottle,NaN,bottle5-boat1.png
dino_v8,1,439,NaN,bicycle,bottle,NaN,bottle5-cat1.png
dino_v8,1,440,NaN,keyboard,bottle,NaN,bottle5-chair1.png
dino_v8,1,441,NaN,clock,bottle,NaN,bottle5-clock3.png
dino_v8,1,442,NaN,bear,bottle,NaN,bottle5-elephant1.png
dino_v8,1,443,NaN,oven,bottle,NaN,bottle5-keyboard2.png
dino_v8,1,444,NaN,bicycle,bottle,NaN,bottle5-knife1.png
dino_v8,1,445,NaN,bicycle,bottle,NaN,bottle5-oven2.png
dino_v8,1,446,NaN,boat,bottle,NaN,bottle5-truck1.png
dino_v8,1,447,NaN,clock,bottle,NaN,bottle6-airplane1.png
dino_v8,1,448,NaN,chair,bottle,NaN,bottle6-bear2.png
dino_v8,1,449,NaN,knife,bottle,NaN,bottle6-bicycle3.png
dino_v8,1,450,NaN,bottle,bottle,NaN,bottle6-bird1.png
dino_v8,1,451,NaN,bicycle,bottle,NaN,bottle6-boat3.png
dino_v8,1,452,NaN,bicycle,bottle,NaN,bottle6-bottle3.png
dino_v8,1,453,NaN,oven,bottle,NaN,bottle6-chair2.png
dino_v8,1,454,NaN,chair,bottle,NaN,bottle6-dog3.png
dino_v8,1,455,NaN,oven,bottle,NaN,bottle6-knife3.png
dino_v8,1,456,NaN,boat,bottle,NaN,bottle6-oven3.png
dino_v8,1,457,NaN,keyboard,bottle,NaN,bottle7-airplane3.png
dino_v8,1,458,NaN,bicycle,bottle,NaN,bottle7-bear1.png
dino_v8,1,459,NaN,clock,bottle,NaN,bottle7-boat3.png
dino_v8,1,460,NaN,airplane,bottle,NaN,bottle7-cat2.png
dino_v8,1,461,NaN,bear,bottle,NaN,bottle7-clock1.png
dino_v8,1,462,NaN,clock,bottle,NaN,bottle7-elephant2.png
dino_v8,1,463,NaN,airplane,bottle,NaN,bottle7-keyboard2.png
dino_v8,1,464,NaN,oven,bottle,NaN,bottle7-oven2.png
dino_v8,1,465,NaN,boat,bottle,NaN,bottle7-truck2.png
dino_v8,1,466,NaN,bicycle,bottle,NaN,bottle8-bicycle1.png
dino_v8,1,467,NaN,bottle,bottle,NaN,bottle8-bird1.png
dino_v8,1,468,NaN,bear,bottle,NaN,bottle8-bottle3.png
dino_v8,1,469,NaN,bottle,bottle,NaN,bottle8-dog2.png
dino_v8,1,470,NaN,bear,bottle,NaN,bottle8-elephant3.png
dino_v8,1,471,NaN,oven,bottle,NaN,bottle8-keyboard3.png
dino_v8,1,472,NaN,keyboard,bottle,NaN,bottle8-knife1.png
dino_v8,1,473,NaN,bear,bottle,NaN,bottle9-bicycle1.png
dino_v8,1,474,NaN,cat,bottle,NaN,bottle9-bottle1.png
dino_v8,1,475,NaN,clock,bottle,NaN,bottle9-car3.png
dino_v8,1,476,NaN,airplane,bottle,NaN,bottle9-cat2.png
dino_v8,1,477,NaN,clock,bottle,NaN,bottle9-elephant2.png
dino_v8,1,478,NaN,cat,bottle,NaN,bottle9-keyboard1.png
dino_v8,1,479,NaN,oven,bottle,NaN,bottle9-oven2.png
dino_v8,1,480,NaN,boat,bottle,NaN,bottle9-truck1.png
dino_v8,1,481,NaN,cat,car,NaN,car1-airplane1.png
dino_v8,1,482,NaN,keyboard,car,NaN,car1-car2.png
dino_v8,1,483,NaN,oven,car,NaN,car1-chair3.png
dino_v8,1,484,NaN,bicycle,car,NaN,car1-clock2.png
dino_v8,1,485,NaN,bottle,car,NaN,car1-dog2.png
dino_v8,1,486,NaN,airplane,car,NaN,car1-keyboard2.png
dino_v8,1,487,NaN,oven,car,NaN,car1-oven3.png
dino_v8,1,488,NaN,cat,car,NaN,car10-bicycle2.png
dino_v8,1,489,NaN,bear,car,NaN,car10-bottle3.png
dino_v8,1,490,NaN,keyboard,car,NaN,car10-car1.png
dino_v8,1,491,NaN,clock,car,NaN,car10-chair1.png
dino_v8,1,492,NaN,chair,car,NaN,car10-dog1.png
dino_v8,1,493,NaN,clock,car,NaN,car10-elephant2.png
dino_v8,1,494,NaN,airplane,car,NaN,car10-keyboard2.png
dino_v8,1,495,NaN,keyboard,car,NaN,car2-bird3.png
dino_v8,1,496,NaN,keyboard,car,NaN,car2-car3.png
dino_v8,1,497,NaN,bicycle,car,NaN,car2-cat3.png
dino_v8,1,498,NaN,keyboard,car,NaN,car2-chair1.png
dino_v8,1,499,NaN,oven,car,NaN,car2-knife3.png
dino_v8,1,500,NaN,keyboard,car,NaN,car3-airplane3.png
dino_v8,1,501,NaN,cat,car,NaN,car3-bird2.png
dino_v8,1,502,NaN,keyboard,car,NaN,car3-boat1.png
dino_v8,1,503,NaN,bear,car,NaN,car3-bottle3.png
dino_v8,1,504,NaN,chair,car,NaN,car3-dog2.png
dino_v8,1,505,NaN,bear,car,NaN,car3-elephant3.png
dino_v8,1,506,NaN,boat,car,NaN,car3-oven3.png
dino_v8,1,507,NaN,keyboard,car,NaN,car3-truck1.png
dino_v8,1,508,NaN,car,car,NaN,car4-bear3.png
dino_v8,1,509,NaN,knife,car,NaN,car4-bicycle3.png
dino_v8,1,510,NaN,bottle,car,NaN,car4-bird1.png
dino_v8,1,511,NaN,cat,car,NaN,car4-boat1.png
dino_v8,1,512,NaN,cat,car,NaN,car4-bottle1.png
dino_v8,1,513,NaN,keyboard,car,NaN,car4-car2.png
dino_v8,1,514,NaN,bicycle,car,NaN,car4-cat3.png
dino_v8,1,515,NaN,cat,car,NaN,car4-clock1.png
dino_v8,1,516,NaN,bear,car,NaN,car4-elephant3.png
dino_v8,1,517,NaN,clock,car,NaN,car4-oven2.png
dino_v8,1,518,NaN,keyboard,car,NaN,car5-airplane3.png
dino_v8,1,519,NaN,car,car,NaN,car5-bear3.png
dino_v8,1,520,NaN,cat,car,NaN,car5-bottle1.png
dino_v8,1,521,NaN,clock,car,NaN,car5-cat1.png
dino_v8,1,522,NaN,clock,car,NaN,car5-keyboard3.png
dino_v8,1,523,NaN,keyboard,car,NaN,car5-knife2.png
dino_v8,1,524,NaN,boat,car,NaN,car5-oven2.png
dino_v8,1,525,NaN,boat,car,NaN,car5-truck3.png
dino_v8,1,526,NaN,knife,car,NaN,car6-bear1.png
dino_v8,1,527,NaN,knife,car,NaN,car6-bicycle3.png
dino_v8,1,528,NaN,oven,car,NaN,car6-boat1.png
dino_v8,1,529,NaN,cat,car,NaN,car6-bottle1.png
dino_v8,1,530,NaN,bird,car,NaN,car6-chair3.png
dino_v8,1,531,NaN,bear,car,NaN,car6-elephant3.png
dino_v8,1,532,NaN,keyboard,car,NaN,car6-knife1.png
dino_v8,1,533,NaN,oven,car,NaN,car6-truck3.png
dino_v8,1,534,NaN,keyboard,car,NaN,car7-airplane2.png
dino_v8,1,535,NaN,knife,car,NaN,car7-bear1.png
dino_v8,1,536,NaN,bottle,car,NaN,car7-bird3.png
dino_v8,1,537,NaN,keyboard,car,NaN,car7-boat3.png
dino_v8,1,538,NaN,bear,car,NaN,car7-car1.png
dino_v8,1,539,NaN,cat,car,NaN,car7-clock1.png
dino_v8,1,540,NaN,bottle,car,NaN,car7-dog3.png
dino_v8,1,541,NaN,bear,car,NaN,car7-elephant3.png
dino_v8,1,542,NaN,airplane,car,NaN,car7-keyboard3.png
dino_v8,1,543,NaN,boat,car,NaN,car7-oven2.png
dino_v8,1,544,NaN,keyboard,car,NaN,car8-airplane3.png
dino_v8,1,545,NaN,knife,car,NaN,car8-bear1.png
dino_v8,1,546,NaN,knife,car,NaN,car8-bicycle2.png
dino_v8,1,547,NaN,keyboard,car,NaN,car8-boat3.png
dino_v8,1,548,NaN,chair,car,NaN,car8-cat1.png
dino_v8,1,549,NaN,oven,car,NaN,car8-chair1.png
dino_v8,1,550,NaN,knife,car,NaN,car8-clock2.png
dino_v8,1,551,NaN,chair,car,NaN,car8-dog1.png
dino_v8,1,552,NaN,bicycle,car,NaN,car8-knife2.png
dino_v8,1,553,NaN,keyboard,car,NaN,car8-truck3.png
dino_v8,1,554,NaN,cat,car,NaN,car9-bicycle2.png
dino_v8,1,555,NaN,bottle,car,NaN,car9-bird1.png
dino_v8,1,556,NaN,chair,car,NaN,car9-cat1.png
dino_v8,1,557,NaN,keyboard,car,NaN,car9-clock2.png
dino_v8,1,558,NaN,airplane,car,NaN,car9-keyboard2.png
dino_v8,1,559,NaN,keyboard,car,NaN,car9-knife1.png
dino_v8,1,560,NaN,keyboard,car,NaN,car9-truck3.png
dino_v8,1,561,NaN,clock,cat,NaN,cat1-airplane1.png
dino_v8,1,562,NaN,bottle,cat,NaN,cat1-bird1.png
dino_v8,1,563,NaN,oven,cat,NaN,cat1-boat1.png
dino_v8,1,564,NaN,keyboard,cat,NaN,cat1-car2.png
dino_v8,1,565,NaN,clock,cat,NaN,cat1-cat3.png
dino_v8,1,566,NaN,cat,cat,NaN,cat1-chair2.png
dino_v8,1,567,NaN,chair,cat,NaN,cat1-dog1.png
dino_v8,1,568,NaN,oven,cat,NaN,cat1-keyboard3.png
dino_v8,1,569,NaN,oven,cat,NaN,cat1-oven1.png
dino_v8,1,570,NaN,oven,cat,NaN,cat10-airplane3.png
dino_v8,1,571,NaN,knife,cat,NaN,cat10-bear1.png
dino_v8,1,572,NaN,bear,cat,NaN,cat10-bicycle1.png
dino_v8,1,573,NaN,knife,cat,NaN,cat10-bird2.png
dino_v8,1,574,NaN,cat,cat,NaN,cat10-bottle1.png
dino_v8,1,575,NaN,oven,cat,NaN,cat10-clock1.png
dino_v8,1,576,NaN,bear,cat,NaN,cat10-elephant3.png
dino_v8,1,577,NaN,airplane,cat,NaN,cat10-keyboard1.png
dino_v8,1,578,NaN,boat,cat,NaN,cat10-oven2.png
dino_v8,1,579,NaN,chair,cat,NaN,cat2-boat2.png
dino_v8,1,580,NaN,clock,cat,NaN,cat2-bottle3.png
dino_v8,1,581,NaN,clock,cat,NaN,cat2-car3.png
dino_v8,1,582,NaN,clock,cat,NaN,cat2-cat1.png
dino_v8,1,583,NaN,bear,cat,NaN,cat2-elephant1.png
dino_v8,1,584,NaN,oven,cat,NaN,cat2-knife3.png
dino_v8,1,585,NaN,bottle,cat,NaN,cat2-truck3.png
dino_v8,1,586,NaN,airplane,cat,NaN,cat3-bear2.png
dino_v8,1,587,NaN,keyboard,cat,NaN,cat3-bicycle1.png
dino_v8,1,588,NaN,clock,cat,NaN,cat3-cat1.png
dino_v8,1,589,NaN,clock,cat,NaN,cat3-elephant2.png
dino_v8,1,590,NaN,boat,cat,NaN,cat3-oven2.png
dino_v8,1,591,NaN,boat,cat,NaN,cat3-truck3.png
dino_v8,1,592,NaN,clock,cat,NaN,cat4-airplane1.png
dino_v8,1,593,NaN,knife,cat,NaN,cat4-bird2.png
dino_v8,1,594,NaN,clock,cat,NaN,cat4-car2.png
dino_v8,1,595,NaN,oven,cat,NaN,cat4-cat3.png
dino_v8,1,596,NaN,dog,cat,NaN,cat4-chair2.png
dino_v8,1,597,NaN,bicycle,cat,NaN,cat4-clock2.png
dino_v8,1,598,NaN,bottle,cat,NaN,cat4-dog3.png
dino_v8,1,599,NaN,airplane,cat,NaN,cat4-keyboard2.png
dino_v8,1,600,NaN,bear,cat,NaN,cat4-knife1.png
dino_v8,1,601,NaN,boat,cat,NaN,cat4-oven1.png
dino_v8,1,602,NaN,boat,cat,NaN,cat4-truck3.png
dino_v8,1,603,NaN,oven,cat,NaN,cat5-airplane2.png
dino_v8,1,604,NaN,knife,cat,NaN,cat5-bear2.png
dino_v8,1,605,NaN,knife,cat,NaN,cat5-bicycle3.png
dino_v8,1,606,NaN,dog,cat,NaN,cat5-boat1.png
dino_v8,1,607,NaN,cat,cat,NaN,cat5-bottle1.png
dino_v8,1,608,NaN,keyboard,cat,NaN,cat5-car2.png
dino_v8,1,609,NaN,oven,cat,NaN,cat5-chair3.png
dino_v8,1,610,NaN,oven,cat,NaN,cat5-dog3.png
dino_v8,1,611,NaN,clock,cat,NaN,cat5-elephant2.png
dino_v8,1,612,NaN,airplane,cat,NaN,cat5-keyboard3.png
dino_v8,1,613,NaN,cat,cat,NaN,cat5-knife2.png
dino_v8,1,614,NaN,chair,cat,NaN,cat6-bear1.png
dino_v8,1,615,NaN,oven,cat,NaN,cat6-chair3.png
dino_v8,1,616,NaN,bear,cat,NaN,cat6-clock3.png
dino_v8,1,617,NaN,airplane,cat,NaN,cat6-keyboard3.png
dino_v8,1,618,NaN,oven,cat,NaN,cat6-oven1.png
dino_v8,1,619,NaN,oven,cat,NaN,cat7-airplane2.png
dino_v8,1,620,NaN,clock,cat,NaN,cat7-boat3.png
dino_v8,1,621,NaN,cat,cat,NaN,cat7-bottle1.png
dino_v8,1,622,NaN,bear,cat,NaN,cat7-clock3.png
dino_v8,1,623,NaN,oven,cat,NaN,cat7-dog3.png
dino_v8,1,624,NaN,bear,cat,NaN,cat7-elephant1.png
dino_v8,1,625,NaN,bicycle,cat,NaN,cat7-knife2.png
dino_v8,1,626,NaN,boat,cat,NaN,cat7-truck2.png
dino_v8,1,627,NaN,knife,cat,NaN,cat8-bear1.png
dino_v8,1,628,NaN,bear,cat,NaN,cat8-bicycle3.png
dino_v8,1,629,NaN,cat,cat,NaN,cat8-bird2.png
dino_v8,1,630,NaN,clock,cat,NaN,cat8-car2.png
dino_v8,1,631,NaN,bear,cat,NaN,cat9-bicycle1.png
dino_v8,1,632,NaN,bottle,cat,NaN,cat9-bird3.png
dino_v8,1,633,NaN,clock,cat,NaN,cat9-boat2.png
dino_v8,1,634,NaN,clock,cat,NaN,cat9-bottle2.png
dino_v8,1,635,NaN,bicycle,cat,NaN,cat9-cat3.png
dino_v8,1,636,NaN,clock,cat,NaN,cat9-chair2.png
dino_v8,1,637,NaN,clock,cat,NaN,cat9-clock2.png
dino_v8,1,638,NaN,chair,cat,NaN,cat9-dog2.png
dino_v8,1,639,NaN,cat,cat,NaN,cat9-knife2.png
dino_v8,1,640,NaN,clock,cat,NaN,cat9-truck1.png
dino_v8,1,641,NaN,keyboard,chair,NaN,chair1-airplane2.png
dino_v8,1,642,NaN,bicycle,chair,NaN,chair1-bear1.png
dino_v8,1,643,NaN,bottle,chair,NaN,chair1-cat3.png
dino_v8,1,644,NaN,oven,chair,NaN,chair1-chair1.png
dino_v8,1,645,NaN,bear,chair,NaN,chair1-clock2.png
dino_v8,1,646,NaN,chair,chair,NaN,chair1-dog1.png
dino_v8,1,647,NaN,bear,chair,NaN,chair1-elephant1.png
dino_v8,1,648,NaN,oven,chair,NaN,chair1-oven3.png
dino_v8,1,649,NaN,oven,chair,NaN,chair1-truck3.png
dino_v8,1,650,NaN,oven,chair,NaN,chair10-airplane2.png
dino_v8,1,651,NaN,keyboard,chair,NaN,chair10-bicycle1.png
dino_v8,1,652,NaN,bottle,chair,NaN,chair10-bird3.png
dino_v8,1,653,NaN,bear,chair,NaN,chair10-bottle3.png
dino_v8,1,654,NaN,bottle,chair,NaN,chair10-car2.png
dino_v8,1,655,NaN,bicycle,chair,NaN,chair10-cat1.png
dino_v8,1,656,NaN,oven,chair,NaN,chair10-clock1.png
dino_v8,1,657,NaN,chair,chair,NaN,chair10-dog1.png
dino_v8,1,658,NaN,oven,chair,NaN,chair10-oven1.png
dino_v8,1,659,NaN,airplane,chair,NaN,chair2-bear2.png
dino_v8,1,660,NaN,cat,chair,NaN,chair2-boat1.png
dino_v8,1,661,NaN,airplane,chair,NaN,chair2-keyboard2.png
dino_v8,1,662,NaN,keyboard,chair,NaN,chair2-knife1.png
dino_v8,1,663,NaN,oven,chair,NaN,chair3-airplane2.png
dino_v8,1,664,NaN,boat,chair,NaN,chair3-bicycle3.png
dino_v8,1,665,NaN,bear,chair,NaN,chair3-bottle3.png
dino_v8,1,666,NaN,clock,chair,NaN,chair3-car3.png
dino_v8,1,667,NaN,bottle,chair,NaN,chair3-dog2.png
dino_v8,1,668,NaN,keyboard,chair,NaN,chair3-knife1.png
dino_v8,1,669,NaN,airplane,chair,NaN,chair4-bear2.png
dino_v8,1,670,NaN,airplane,chair,NaN,chair4-cat2.png
dino_v8,1,671,NaN,oven,chair,NaN,chair4-chair3.png
dino_v8,1,672,NaN,airplane,chair,NaN,chair4-keyboard2.png
dino_v8,1,673,NaN,oven,chair,NaN,chair4-oven2.png
dino_v8,1,674,NaN,boat,chair,NaN,chair4-truck2.png
dino_v8,1,675,NaN,cat,chair,NaN,chair5-bicycle1.png
dino_v8,1,676,NaN,bottle,chair,NaN,chair5-bird1.png
dino_v8,1,677,NaN,dog,chair,NaN,chair5-boat3.png
dino_v8,1,678,NaN,bear,chair,NaN,chair5-bottle3.png
dino_v8,1,679,NaN,keyboard,chair,NaN,chair5-car1.png
dino_v8,1,680,NaN,bottle,chair,NaN,chair5-cat3.png
dino_v8,1,681,NaN,keyboard,chair,NaN,chair5-clock2.png
dino_v8,1,682,NaN,oven,chair,NaN,chair5-keyboard2.png
dino_v8,1,683,NaN,oven,chair,NaN,chair5-knife3.png
dino_v8,1,684,NaN,bicycle,chair,NaN,chair5-oven2.png
dino_v8,1,685,NaN,clock,chair,NaN,chair5-truck3.png
dino_v8,1,686,NaN,cat,chair,NaN,chair6-bird2.png
dino_v8,1,687,NaN,chair,chair,NaN,chair6-dog1.png
dino_v8,1,688,NaN,clock,chair,NaN,chair6-elephant2.png
dino_v8,1,689,NaN,boat,chair,NaN,chair6-truck2.png
dino_v8,1,690,NaN,bear,chair,NaN,chair7-airplane1.png
dino_v8,1,691,NaN,bottle,chair,NaN,chair7-bird1.png
dino_v8,1,692,NaN,clock,chair,NaN,chair7-boat3.png
dino_v8,1,693,NaN,cat,chair,NaN,chair7-bottle1.png
dino_v8,1,694,NaN,clock,chair,NaN,chair7-car2.png
dino_v8,1,695,NaN,chair,chair,NaN,chair7-cat1.png
dino_v8,1,696,NaN,oven,chair,NaN,chair7-chair1.png
dino_v8,1,697,NaN,clock,chair,NaN,chair7-clock3.png
dino_v8,1,698,NaN,bear,chair,NaN,chair7-elephant1.png
dino_v8,1,699,NaN,keyboard,chair,NaN,chair7-knife2.png
dino_v8,1,700,NaN,keyboard,chair,NaN,chair7-truck3.png
dino_v8,1,701,NaN,clock,chair,NaN,chair8-airplane1.png
dino_v8,1,702,NaN,bicycle,chair,NaN,chair8-bear1.png
dino_v8,1,703,NaN,boat,chair,NaN,chair8-bicycle3.png
dino_v8,1,704,NaN,keyboard,chair,NaN,chair8-boat1.png
dino_v8,1,705,NaN,bear,chair,NaN,chair8-car1.png
dino_v8,1,706,NaN,oven,chair,NaN,chair8-chair3.png
dino_v8,1,707,NaN,clock,chair,NaN,chair8-clock3.png
dino_v8,1,708,NaN,bear,chair,NaN,chair8-elephant1.png
dino_v8,1,709,NaN,oven,chair,NaN,chair8-keyboard3.png
dino_v8,1,710,NaN,keyboard,chair,NaN,chair8-knife2.png
dino_v8,1,711,NaN,boat,chair,NaN,chair8-oven1.png
dino_v8,1,712,NaN,knife,chair,NaN,chair9-bear1.png
dino_v8,1,713,NaN,boat,chair,NaN,chair9-bicycle3.png
dino_v8,1,714,NaN,knife,chair,NaN,chair9-bird3.png
dino_v8,1,715,NaN,dog,chair,NaN,chair9-boat2.png
dino_v8,1,716,NaN,bear,chair,NaN,chair9-bottle3.png
dino_v8,1,717,NaN,oven,chair,NaN,chair9-chair3.png
dino_v8,1,718,NaN,chair,chair,NaN,chair9-dog2.png
dino_v8,1,719,NaN,bird,chair,NaN,chair9-elephant1.png
dino_v8,1,720,NaN,oven,chair,NaN,chair9-keyboard2.png
dino_v8,1,721,NaN,bicycle,clock,NaN,clock1-bear1.png
dino_v8,1,722,NaN,keyboard,clock,NaN,clock1-boat3.png
dino_v8,1,723,NaN,bear,clock,NaN,clock1-car1.png
dino_v8,1,724,NaN,bear,clock,NaN,clock1-clock2.png
dino_v8,1,725,NaN,chair,clock,NaN,clock1-dog2.png
dino_v8,1,726,NaN,clock,clock,NaN,clock1-elephant2.png
dino_v8,1,727,NaN,knife,clock,NaN,clock1-truck3.png
dino_v8,1,728,NaN,bicycle,clock,NaN,clock10-airplane1.png
dino_v8,1,729,NaN,bicycle,clock,NaN,clock10-bird3.png
dino_v8,1,730,NaN,bicycle,clock,NaN,clock10-boat2.png
dino_v8,1,731,NaN,cat,clock,NaN,clock10-bottle1.png
dino_v8,1,732,NaN,bicycle,clock,NaN,clock10-cat1.png
dino_v8,1,733,NaN,clock,clock,NaN,clock10-clock3.png
dino_v8,1,734,NaN,chair,clock,NaN,clock10-dog3.png
dino_v8,1,735,NaN,oven,clock,NaN,clock10-knife3.png
dino_v8,1,736,NaN,boat,clock,NaN,clock10-oven2.png
dino_v8,1,737,NaN,boat,clock,NaN,clock10-truck2.png
dino_v8,1,738,NaN,airplane,clock,NaN,clock2-bear2.png
dino_v8,1,739,NaN,keyboard,clock,NaN,clock2-bicycle1.png
dino_v8,1,740,NaN,bicycle,clock,NaN,clock2-bottle3.png
dino_v8,1,741,NaN,clock,clock,NaN,clock2-clock3.png
dino_v8,1,742,NaN,chair,clock,NaN,clock2-dog1.png
dino_v8,1,743,NaN,clock,clock,NaN,clock2-elephant2.png
dino_v8,1,744,NaN,keyboard,clock,NaN,clock2-knife1.png
dino_v8,1,745,NaN,car,clock,NaN,clock3-bear3.png
dino_v8,1,746,NaN,cat,clock,NaN,clock3-bicycle2.png
dino_v8,1,747,NaN,oven,clock,NaN,clock3-bird1.png
dino_v8,1,748,NaN,keyboard,clock,NaN,clock3-car2.png
dino_v8,1,749,NaN,bicycle,clock,NaN,clock3-cat1.png
dino_v8,1,750,NaN,chair,clock,NaN,clock3-dog2.png
dino_v8,1,751,NaN,bear,clock,NaN,clock3-elephant3.png
dino_v8,1,752,NaN,airplane,clock,NaN,clock3-keyboard3.png
dino_v8,1,753,NaN,bear,clock,NaN,clock4-airplane1.png
dino_v8,1,754,NaN,clock,clock,NaN,clock4-bird3.png
dino_v8,1,755,NaN,cat,clock,NaN,clock4-boat3.png
dino_v8,1,756,NaN,bear,clock,NaN,clock4-bottle3.png
dino_v8,1,757,NaN,clock,clock,NaN,clock4-car2.png
dino_v8,1,758,NaN,clock,clock,NaN,clock4-chair1.png
dino_v8,1,759,NaN,clock,clock,NaN,clock4-elephant2.png
dino_v8,1,760,NaN,cat,clock,NaN,clock4-knife1.png
dino_v8,1,761,NaN,bear,clock,NaN,clock4-oven1.png
dino_v8,1,762,NaN,clock,clock,NaN,clock5-airplane1.png
dino_v8,1,763,NaN,clock,clock,NaN,clock5-bicycle1.png
dino_v8,1,764,NaN,oven,clock,NaN,clock5-chair3.png
dino_v8,1,765,NaN,knife,clock,NaN,clock5-clock2.png
dino_v8,1,766,NaN,bird,clock,NaN,clock5-elephant2.png
dino_v8,1,767,NaN,cat,clock,NaN,clock5-keyboard1.png
dino_v8,1,768,NaN,bottle,clock,NaN,clock5-oven1.png
dino_v8,1,769,NaN,keyboard,clock,NaN,clock6-bicycle1.png
dino_v8,1,770,NaN,oven,clock,NaN,clock6-bird3.png
dino_v8,1,771,NaN,cat,clock,NaN,clock6-bottle1.png
dino_v8,1,772,NaN,clock,clock,NaN,clock6-car2.png
dino_v8,1,773,NaN,oven,clock,NaN,clock6-chair3.png
dino_v8,1,774,NaN,clock,clock,NaN,clock6-clock2.png
dino_v8,1,775,NaN,clock,clock,NaN,clock6-knife2.png
dino_v8,1,776,NaN,boat,clock,NaN,clock6-oven1.png
dino_v8,1,777,NaN,oven,clock,NaN,clock6-truck3.png
dino_v8,1,778,NaN,airplane,clock,NaN,clock7-bear2.png
dino_v8,1,779,NaN,keyboard,clock,NaN,clock7-bicycle1.png
dino_v8,1,780,NaN,cat,clock,NaN,clock7-boat3.png
dino_v8,1,781,NaN,clock,clock,NaN,clock7-bottle2.png
dino_v8,1,782,NaN,keyboard,clock,NaN,clock7-car1.png
dino_v8,1,783,NaN,clock,clock,NaN,clock7-cat2.png
dino_v8,1,784,NaN,chair,clock,NaN,clock7-dog2.png
dino_v8,1,785,NaN,airplane,clock,NaN,clock7-keyboard2.png
dino_v8,1,786,NaN,chair,clock,NaN,clock7-truck3.png
dino_v8,1,787,NaN,bicycle,clock,NaN,clock8-airplane2.png
dino_v8,1,788,NaN,airplane,clock,NaN,clock8-bear2.png
dino_v8,1,789,NaN,cat,clock,NaN,clock8-boat1.png
dino_v8,1,790,NaN,bicycle,clock,NaN,clock8-cat1.png
dino_v8,1,791,NaN,chair,clock,NaN,clock8-chair2.png
dino_v8,1,792,NaN,cat,clock,NaN,clock8-keyboard1.png
dino_v8,1,793,NaN,cat,clock,NaN,clock8-knife1.png
dino_v8,1,794,NaN,bicycle,clock,NaN,clock8-oven3.png
dino_v8,1,795,NaN,cat,clock,NaN,clock8-truck2.png
dino_v8,1,796,NaN,clock,clock,NaN,clock9-airplane1.png
dino_v8,1,797,NaN,knife,clock,NaN,clock9-bird2.png
dino_v8,1,798,NaN,bicycle,clock,NaN,clock9-cat1.png
dino_v8,1,799,NaN,cat,clock,NaN,clock9-chair3.png
dino_v8,1,800,NaN,airplane,clock,NaN,clock9-keyboard2.png
dino_v8,1,801,NaN,keyboard,dog,NaN,dog1-airplane3.png
dino_v8,1,802,NaN,knife,dog,NaN,dog1-bear1.png
dino_v8,1,803,NaN,clock,dog,NaN,dog1-bird1.png
dino_v8,1,804,NaN,clock,dog,NaN,dog1-boat3.png
dino_v8,1,805,NaN,clock,dog,NaN,dog1-car2.png
dino_v8,1,806,NaN,clock,dog,NaN,dog1-cat3.png
dino_v8,1,807,NaN,oven,dog,NaN,dog1-chair1.png
dino_v8,1,808,NaN,keyboard,dog,NaN,dog1-dog2.png
dino_v8,1,809,NaN,oven,dog,NaN,dog1-knife3.png
dino_v8,1,810,NaN,keyboard,dog,NaN,dog10-airplane1.png
dino_v8,1,811,NaN,dog,dog,NaN,dog10-bicycle1.png
dino_v8,1,812,NaN,cat,dog,NaN,dog10-bottle1.png
dino_v8,1,813,NaN,keyboard,dog,NaN,dog10-car3.png
dino_v8,1,814,NaN,cat,dog,NaN,dog10-clock1.png
dino_v8,1,815,NaN,chair,dog,NaN,dog10-dog1.png
dino_v8,1,816,NaN,bear,dog,NaN,dog10-elephant1.png
dino_v8,1,817,NaN,oven,dog,NaN,dog10-keyboard2.png
dino_v8,1,818,NaN,boat,dog,NaN,dog10-oven2.png
dino_v8,1,819,NaN,boat,dog,NaN,dog10-truck2.png
dino_v8,1,820,NaN,oven,dog,NaN,dog2-airplane2.png
dino_v8,1,821,NaN,bear,dog,NaN,dog2-bicycle2.png
dino_v8,1,822,NaN,clock,dog,NaN,dog2-bottle2.png
dino_v8,1,823,NaN,chair,dog,NaN,dog2-cat1.png
dino_v8,1,824,NaN,chair,dog,NaN,dog2-dog3.png
dino_v8,1,825,NaN,oven,dog,NaN,dog2-knife3.png
dino_v8,1,826,NaN,car,dog,NaN,dog3-bear3.png
dino_v8,1,827,NaN,knife,dog,NaN,dog3-bird2.png
dino_v8,1,828,NaN,clock,dog,NaN,dog3-boat1.png
dino_v8,1,829,NaN,bear,dog,NaN,dog3-clock1.png
dino_v8,1,830,NaN,chair,dog,NaN,dog3-dog1.png
dino_v8,1,831,NaN,clock,dog,NaN,dog3-elephant2.png
dino_v8,1,832,NaN,cat,dog,NaN,dog3-keyboard1.png
dino_v8,1,833,NaN,oven,dog,NaN,dog3-knife3.png
dino_v8,1,834,NaN,boat,dog,NaN,dog3-truck2.png
dino_v8,1,835,NaN,car,dog,NaN,dog4-airplane3.png
dino_v8,1,836,NaN,bear,dog,NaN,dog4-bicycle1.png
dino_v8,1,837,NaN,oven,dog,NaN,dog4-bird1.png
dino_v8,1,838,NaN,clock,dog,NaN,dog4-bottle2.png
dino_v8,1,839,NaN,clock,dog,NaN,dog4-cat3.png
dino_v8,1,840,NaN,knife,dog,NaN,dog4-chair1.png
dino_v8,1,841,NaN,bear,dog,NaN,dog4-clock1.png
dino_v8,1,842,NaN,clock,dog,NaN,dog4-elephant2.png
dino_v8,1,843,NaN,airplane,dog,NaN,dog4-keyboard2.png
dino_v8,1,844,NaN,bottle,dog,NaN,dog4-oven1.png
dino_v8,1,845,NaN,boat,dog,NaN,dog4-truck2.png
dino_v8,1,846,NaN,car,dog,NaN,dog5-bear3.png
dino_v8,1,847,NaN,keyboard,dog,NaN,dog5-boat3.png
dino_v8,1,848,NaN,keyboard,dog,NaN,dog5-car3.png
dino_v8,1,849,NaN,bird,dog,NaN,dog5-elephant1.png
dino_v8,1,850,NaN,oven,dog,NaN,dog5-knife2.png
dino_v8,1,851,NaN,oven,dog,NaN,dog5-oven1.png
dino_v8,1,852,NaN,boat,dog,NaN,dog5-truck2.png
dino_v8,1,853,NaN,cat,dog,NaN,dog6-bicycle1.png
dino_v8,1,854,NaN,bottle,dog,NaN,dog6-bird1.png
dino_v8,1,855,NaN,chair,dog,NaN,dog6-cat1.png
dino_v8,1,856,NaN,bear,dog,NaN,dog6-clock1.png
dino_v8,1,857,NaN,clock,dog,NaN,dog6-elephant2.png
dino_v8,1,858,NaN,clock,dog,NaN,dog6-truck2.png
dino_v8,1,859,NaN,knife,dog,NaN,dog7-bird3.png
dino_v8,1,860,NaN,keyboard,dog,NaN,dog7-car2.png
dino_v8,1,861,NaN,chair,dog,NaN,dog7-chair2.png
dino_v8,1,862,NaN,oven,dog,NaN,dog7-keyboard3.png
dino_v8,1,863,NaN,oven,dog,NaN,dog7-knife3.png
dino_v8,1,864,NaN,boat,dog,NaN,dog7-oven2.png
dino_v8,1,865,NaN,car,dog,NaN,dog8-bear3.png
dino_v8,1,866,NaN,clock,dog,NaN,dog8-boat3.png
dino_v8,1,867,NaN,clock,dog,NaN,dog8-bottle2.png
dino_v8,1,868,NaN,oven,dog,NaN,dog8-chair3.png
dino_v8,1,869,NaN,knife,dog,NaN,dog8-clock2.png
dino_v8,1,870,NaN,clock,dog,NaN,dog8-dog3.png
dino_v8,1,871,NaN,oven,dog,NaN,dog8-keyboard3.png
dino_v8,1,872,NaN,boat,dog,NaN,dog8-oven3.png
dino_v8,1,873,NaN,clock,dog,NaN,dog9-airplane3.png
dino_v8,1,874,NaN,car,dog,NaN,dog9-bear3.png
dino_v8,1,875,NaN,boat,dog,NaN,dog9-bicycle3.png
dino_v8,1,876,NaN,clock,dog,NaN,dog9-boat1.png
dino_v8,1,877,NaN,cat,dog,NaN,dog9-bottle1.png
dino_v8,1,878,NaN,bear,dog,NaN,dog9-car1.png
dino_v8,1,879,NaN,chair,dog,NaN,dog9-cat1.png
dino_v8,1,880,NaN,dog,dog,NaN,dog9-chair2.png
dino_v8,1,881,NaN,oven,elephant,NaN,elephant1-airplane2.png
dino_v8,1,882,NaN,airplane,elephant,NaN,elephant1-bear2.png
dino_v8,1,883,NaN,clock,elephant,NaN,elephant1-boat2.png
dino_v8,1,884,NaN,cat,elephant,NaN,elephant1-bottle1.png
dino_v8,1,885,NaN,clock,elephant,NaN,elephant1-car3.png
dino_v8,1,886,NaN,oven,elephant,NaN,elephant1-chair1.png
dino_v8,1,887,NaN,chair,elephant,NaN,elephant1-dog2.png
dino_v8,1,888,NaN,oven,elephant,NaN,elephant1-keyboard3.png
dino_v8,1,889,NaN,clock,elephant,NaN,elephant1-oven2.png
dino_v8,1,890,NaN,chair,elephant,NaN,elephant10-bear1.png
dino_v8,1,891,NaN,bird,elephant,NaN,elephant10-elephant1.png
dino_v8,1,892,NaN,cat,elephant,NaN,elephant10-keyboard1.png
dino_v8,1,893,NaN,oven,elephant,NaN,elephant10-knife3.png
dino_v8,1,894,NaN,bear,elephant,NaN,elephant2-airplane3.png
dino_v8,1,895,NaN,car,elephant,NaN,elephant2-bear3.png
dino_v8,1,896,NaN,bottle,elephant,NaN,elephant2-bird1.png
dino_v8,1,897,NaN,keyboard,elephant,NaN,elephant2-boat1.png
dino_v8,1,898,NaN,bear,elephant,NaN,elephant2-bottle3.png
dino_v8,1,899,NaN,bicycle,elephant,NaN,elephant2-cat1.png
dino_v8,1,900,NaN,bear,elephant,NaN,elephant2-clock1.png
dino_v8,1,901,NaN,bear,elephant,NaN,elephant2-elephant3.png
dino_v8,1,902,NaN,oven,elephant,NaN,elephant2-keyboard3.png
dino_v8,1,903,NaN,boat,elephant,NaN,elephant2-truck2.png
dino_v8,1,904,NaN,airplane,elephant,NaN,elephant3-cat2.png
dino_v8,1,905,NaN,oven,elephant,NaN,elephant3-chair1.png
dino_v8,1,906,NaN,airplane,elephant,NaN,elephant3-keyboard2.png
dino_v8,1,907,NaN,keyboard,elephant,NaN,elephant3-knife1.png
dino_v8,1,908,NaN,bicycle,elephant,NaN,elephant3-oven1.png
dino_v8,1,909,NaN,clock,elephant,NaN,elephant3-truck1.png
dino_v8,1,910,NaN,cat,elephant,NaN,elephant4-bicycle2.png
dino_v8,1,911,NaN,clock,elephant,NaN,elephant4-bird1.png
dino_v8,1,912,NaN,oven,elephant,NaN,elephant4-boat3.png
dino_v8,1,913,NaN,keyboard,elephant,NaN,elephant4-car3.png
dino_v8,1,914,NaN,oven,elephant,NaN,elephant4-chair3.png
dino_v8,1,915,NaN,clock,elephant,NaN,elephant4-clock3.png
dino_v8,1,916,NaN,oven,elephant,NaN,elephant4-oven1.png
dino_v8,1,917,NaN,chair,elephant,NaN,elephant5-bear2.png
dino_v8,1,918,NaN,clock,elephant,NaN,elephant5-bicycle3.png
dino_v8,1,919,NaN,clock,elephant,NaN,elephant5-bottle2.png
dino_v8,1,920,NaN,bear,elephant,NaN,elephant5-car1.png
dino_v8,1,921,NaN,oven,elephant,NaN,elephant5-chair3.png
dino_v8,1,922,NaN,bear,elephant,NaN,elephant5-elephant1.png
dino_v8,1,923,NaN,oven,elephant,NaN,elephant5-truck1.png
dino_v8,1,924,NaN,cat,elephant,NaN,elephant6-bicycle1.png
dino_v8,1,925,NaN,bottle,elephant,NaN,elephant6-bird1.png
dino_v8,1,926,NaN,clock,elephant,NaN,elephant6-bottle2.png
dino_v8,1,927,NaN,clock,elephant,NaN,elephant6-car3.png
dino_v8,1,928,NaN,airplane,elephant,NaN,elephant6-cat2.png
dino_v8,1,929,NaN,chair,elephant,NaN,elephant6-dog2.png
dino_v8,1,930,NaN,clock,elephant,NaN,elephant6-knife2.png
dino_v8,1,931,NaN,oven,elephant,NaN,elephant6-oven1.png
dino_v8,1,932,NaN,oven,elephant,NaN,elephant6-truck3.png
dino_v8,1,933,NaN,boat,elephant,NaN,elephant7-airplane3.png
dino_v8,1,934,NaN,car,elephant,NaN,elephant7-bear3.png
dino_v8,1,935,NaN,bottle,elephant,NaN,elephant7-bird1.png
dino_v8,1,936,NaN,bear,elephant,NaN,elephant7-bottle3.png
dino_v8,1,937,NaN,clock,elephant,NaN,elephant7-car3.png
dino_v8,1,938,NaN,chair,elephant,NaN,elephant7-cat1.png
dino_v8,1,939,NaN,clock,elephant,NaN,elephant7-clock2.png
dino_v8,1,940,NaN,chair,elephant,NaN,elephant7-dog1.png
dino_v8,1,941,NaN,oven,elephant,NaN,elephant7-keyboard3.png
dino_v8,1,942,NaN,cat,elephant,NaN,elephant7-knife2.png
dino_v8,1,943,NaN,oven,elephant,NaN,elephant8-airplane3.png
dino_v8,1,944,NaN,clock,elephant,NaN,elephant8-bicycle3.png
dino_v8,1,945,NaN,cat,elephant,NaN,elephant8-bird2.png
dino_v8,1,946,NaN,chair,elephant,NaN,elephant8-boat2.png
dino_v8,1,947,NaN,chair,elephant,NaN,elephant8-cat1.png
dino_v8,1,948,NaN,clock,elephant,NaN,elephant8-clock2.png
dino_v8,1,949,NaN,chair,elephant,NaN,elephant8-dog1.png
dino_v8,1,950,NaN,oven,elephant,NaN,elephant8-elephant1.png
dino_v8,1,951,NaN,bicycle,elephant,NaN,elephant8-knife2.png
dino_v8,1,952,NaN,oven,elephant,NaN,elephant8-oven3.png
dino_v8,1,953,NaN,oven,elephant,NaN,elephant8-truck3.png
dino_v8,1,954,NaN,oven,elephant,NaN,elephant9-airplane2.png
dino_v8,1,955,NaN,cat,elephant,NaN,elephant9-bicycle2.png
dino_v8,1,956,NaN,oven,elephant,NaN,elephant9-boat3.png
dino_v8,1,957,NaN,cat,elephant,NaN,elephant9-chair2.png
dino_v8,1,958,NaN,clock,elephant,NaN,elephant9-clock3.png
dino_v8,1,959,NaN,chair,elephant,NaN,elephant9-dog3.png
dino_v8,1,960,NaN,bear,elephant,NaN,elephant9-elephant3.png
dino_v8,1,961,NaN,oven,keyboard,NaN,keyboard1-airplane2.png
dino_v8,1,962,NaN,airplane,keyboard,NaN,keyboard1-bear2.png
dino_v8,1,963,NaN,chair,keyboard,NaN,keyboard1-bird2.png
dino_v8,1,964,NaN,clock,keyboard,NaN,keyboard1-car3.png
dino_v8,1,965,NaN,cat,keyboard,NaN,keyboard1-chair2.png
dino_v8,1,966,NaN,bear,keyboard,NaN,keyboard1-clock1.png
dino_v8,1,967,NaN,bottle,keyboard,NaN,keyboard1-dog3.png
dino_v8,1,968,NaN,bear,keyboard,NaN,keyboard1-elephant3.png
dino_v8,1,969,NaN,clock,keyboard,NaN,keyboard10-airplane3.png
dino_v8,1,970,NaN,clock,keyboard,NaN,keyboard10-boat2.png
dino_v8,1,971,NaN,bear,keyboard,NaN,keyboard10-car1.png
dino_v8,1,972,NaN,cat,keyboard,NaN,keyboard10-keyboard1.png
dino_v8,1,973,NaN,oven,keyboard,NaN,keyboard10-oven3.png
dino_v8,1,974,NaN,clock,keyboard,NaN,keyboard10-truck1.png
dino_v8,1,975,NaN,knife,keyboard,NaN,keyboard2-bicycle3.png
dino_v8,1,976,NaN,cat,keyboard,NaN,keyboard2-bottle1.png
dino_v8,1,977,NaN,bear,keyboard,NaN,keyboard2-clock1.png
dino_v8,1,978,NaN,bird,keyboard,NaN,keyboard2-elephant1.png
dino_v8,1,979,NaN,keyboard,keyboard,NaN,keyboard2-knife1.png
dino_v8,1,980,NaN,bear,keyboard,NaN,keyboard3-bicycle2.png
dino_v8,1,981,NaN,car,keyboard,NaN,keyboard3-bird3.png
dino_v8,1,982,NaN,clock,keyboard,NaN,keyboard3-boat1.png
dino_v8,1,983,NaN,clock,keyboard,NaN,keyboard3-car2.png
dino_v8,1,984,NaN,bicycle,keyboard,NaN,keyboard3-cat1.png
dino_v8,1,985,NaN,clock,keyboard,NaN,keyboard3-clock3.png
dino_v8,1,986,NaN,clock,keyboard,NaN,keyboard3-elephant2.png
dino_v8,1,987,NaN,clock,keyboard,NaN,keyboard4-bird1.png
dino_v8,1,988,NaN,cat,keyboard,NaN,keyboard4-bottle2.png
dino_v8,1,989,NaN,airplane,keyboard,NaN,keyboard4-cat2.png
dino_v8,1,990,NaN,bear,keyboard,NaN,keyboard4-clock2.png
dino_v8,1,991,NaN,airplane,keyboard,NaN,keyboard4-keyboard2.png
dino_v8,1,992,NaN,bicycle,keyboard,NaN,keyboard4-knife2.png
dino_v8,1,993,NaN,oven,keyboard,NaN,keyboard4-oven2.png
dino_v8,1,994,NaN,keyboard,keyboard,NaN,keyboard4-truck3.png
dino_v8,1,995,NaN,oven,keyboard,NaN,keyboard5-airplane3.png
dino_v8,1,996,NaN,car,keyboard,NaN,keyboard5-bear3.png
dino_v8,1,997,NaN,cat,keyboard,NaN,keyboard5-bicycle1.png
dino_v8,1,998,NaN,knife,keyboard,NaN,keyboard5-bird3.png
dino_v8,1,999,NaN,cat,keyboard,NaN,keyboard5-bottle1.png
dino_v8,1,1000,NaN,chair,keyboard,NaN,keyboard5-cat1.png
dino_v8,1,1001,NaN,chair,keyboard,NaN,keyboard5-dog3.png
dino_v8,1,1002,NaN,cat,keyboard,NaN,keyboard5-keyboard1.png
dino_v8,1,1003,NaN,bear,keyboard,NaN,keyboard5-knife2.png
dino_v8,1,1004,NaN,clock,keyboard,NaN,keyboard5-oven2.png
dino_v8,1,1005,NaN,airplane,keyboard,NaN,keyboard6-bear2.png
dino_v8,1,1006,NaN,cat,keyboard,NaN,keyboard6-bicycle1.png
dino_v8,1,1007,NaN,cat,keyboard,NaN,keyboard6-boat2.png
dino_v8,1,1008,NaN,clock,keyboard,NaN,keyboard6-bottle2.png
dino_v8,1,1009,NaN,keyboard,keyboard,NaN,keyboard6-car2.png
dino_v8,1,1010,NaN,oven,keyboard,NaN,keyboard6-chair1.png
dino_v8,1,1011,NaN,chair,keyboard,NaN,keyboard6-dog2.png
dino_v8,1,1012,NaN,bird,keyboard,NaN,keyboard6-elephant1.png
dino_v8,1,1013,NaN,keyboard,keyboard,NaN,keyboard6-knife2.png
dino_v8,1,1014,NaN,airplane,keyboard,NaN,keyboard7-bear2.png
dino_v8,1,1015,NaN,clock,keyboard,NaN,keyboard7-boat2.png
dino_v8,1,1016,NaN,cat,keyboard,NaN,keyboard7-bottle1.png
dino_v8,1,1017,NaN,clock,keyboard,NaN,keyboard7-car3.png
dino_v8,1,1018,NaN,oven,keyboard,NaN,keyboard7-chair3.png
dino_v8,1,1019,NaN,clock,keyboard,NaN,keyboard7-clock3.png
dino_v8,1,1020,NaN,chair,keyboard,NaN,keyboard7-dog1.png
dino_v8,1,1021,NaN,bear,keyboard,NaN,keyboard7-knife1.png
dino_v8,1,1022,NaN,car,keyboard,NaN,keyboard7-oven2.png
dino_v8,1,1023,NaN,clock,keyboard,NaN,keyboard7-truck2.png
dino_v8,1,1024,NaN,oven,keyboard,NaN,keyboard8-airplane2.png
dino_v8,1,1025,NaN,bicycle,keyboard,NaN,keyboard8-cat3.png
dino_v8,1,1026,NaN,cat,keyboard,NaN,keyboard8-chair2.png
dino_v8,1,1027,NaN,oven,keyboard,NaN,keyboard8-dog3.png
dino_v8,1,1028,NaN,airplane,keyboard,NaN,keyboard8-keyboard2.png
dino_v8,1,1029,NaN,oven,keyboard,NaN,keyboard8-oven1.png
dino_v8,1,1030,NaN,oven,keyboard,NaN,keyboard8-truck3.png
dino_v8,1,1031,NaN,keyboard,keyboard,NaN,keyboard9-airplane3.png
dino_v8,1,1032,NaN,airplane,keyboard,NaN,keyboard9-bear2.png
dino_v8,1,1033,NaN,oven,keyboard,NaN,keyboard9-bicycle2.png
dino_v8,1,1034,NaN,bottle,keyboard,NaN,keyboard9-bird1.png
dino_v8,1,1035,NaN,cat,keyboard,NaN,keyboard9-boat2.png
dino_v8,1,1036,NaN,chair,keyboard,NaN,keyboard9-cat1.png
dino_v8,1,1037,NaN,knife,keyboard,NaN,keyboard9-chair2.png
dino_v8,1,1038,NaN,clock,keyboard,NaN,keyboard9-elephant2.png
dino_v8,1,1039,NaN,airplane,keyboard,NaN,keyboard9-keyboard2.png
dino_v8,1,1040,NaN,boat,keyboard,NaN,keyboard9-truck3.png
dino_v8,1,1041,NaN,bear,knife,NaN,knife1-airplane1.png
dino_v8,1,1042,NaN,keyboard,knife,NaN,knife1-bird2.png
dino_v8,1,1043,NaN,clock,knife,NaN,knife1-car3.png
dino_v8,1,1044,NaN,clock,knife,NaN,knife1-chair1.png
dino_v8,1,1045,NaN,clock,knife,NaN,knife1-clock2.png
dino_v8,1,1046,NaN,chair,knife,NaN,knife1-dog1.png
dino_v8,1,1047,NaN,bird,knife,NaN,knife1-elephant1.png
dino_v8,1,1048,NaN,oven,knife,NaN,knife1-keyboard3.png
dino_v8,1,1049,NaN,oven,knife,NaN,knife1-oven1.png
dino_v8,1,1050,NaN,clock,knife,NaN,knife1-truck2.png
dino_v8,1,1051,NaN,car,knife,NaN,knife10-bear3.png
dino_v8,1,1052,NaN,oven,knife,NaN,knife10-chair1.png
dino_v8,1,1053,NaN,chair,knife,NaN,knife10-dog1.png
dino_v8,1,1054,NaN,bear,knife,NaN,knife10-elephant3.png
dino_v8,1,1055,NaN,oven,knife,NaN,knife10-keyboard3.png
dino_v8,1,1056,NaN,keyboard,knife,NaN,knife10-knife1.png
dino_v8,1,1057,NaN,oven,knife,NaN,knife10-oven3.png
dino_v8,1,1058,NaN,airplane,knife,NaN,knife2-bear2.png
dino_v8,1,1059,NaN,knife,knife,NaN,knife2-bicycle3.png
dino_v8,1,1060,NaN,clock,knife,NaN,knife2-bird1.png
dino_v8,1,1061,NaN,clock,knife,NaN,knife2-bottle2.png
dino_v8,1,1062,NaN,keyboard,knife,NaN,knife2-car3.png
dino_v8,1,1063,NaN,clock,knife,NaN,knife2-cat3.png
dino_v8,1,1064,NaN,chair,knife,NaN,knife2-dog1.png
dino_v8,1,1065,NaN,clock,knife,NaN,knife2-elephant2.png
dino_v8,1,1066,NaN,boat,knife,NaN,knife2-truck2.png
dino_v8,1,1067,NaN,knife,knife,NaN,knife3-bear2.png
dino_v8,1,1068,NaN,bottle,knife,NaN,knife3-cat1.png
dino_v8,1,1069,NaN,clock,knife,NaN,knife3-clock2.png
dino_v8,1,1070,NaN,clock,knife,NaN,knife3-keyboard3.png
dino_v8,1,1071,NaN,bear,knife,NaN,knife3-knife1.png
dino_v8,1,1072,NaN,keyboard,knife,NaN,knife4-airplane3.png
dino_v8,1,1073,NaN,car,knife,NaN,knife4-bear1.png
dino_v8,1,1074,NaN,clock,knife,NaN,knife4-boat1.png
dino_v8,1,1075,NaN,bear,knife,NaN,knife4-car2.png
dino_v8,1,1076,NaN,airplane,knife,NaN,knife4-cat2.png
dino_v8,1,1077,NaN,clock,knife,NaN,knife4-clock3.png
dino_v8,1,1078,NaN,airplane,knife,NaN,knife4-keyboard1.png
dino_v8,1,1079,NaN,clock,knife,NaN,knife4-knife2.png
dino_v8,1,1080,NaN,clock,knife,NaN,knife4-oven2.png
dino_v8,1,1081,NaN,cat,knife,NaN,knife5-bicycle2.png
dino_v8,1,1082,NaN,bottle,knife,NaN,knife5-cat2.png
dino_v8,1,1083,NaN,bear,knife,NaN,knife5-clock1.png
dino_v8,1,1084,NaN,chair,knife,NaN,knife5-dog1.png
dino_v8,1,1085,NaN,oven,knife,NaN,knife5-keyboard3.png
dino_v8,1,1086,NaN,oven,knife,NaN,knife5-knife3.png
dino_v8,1,1087,NaN,boat,knife,NaN,knife5-oven2.png
dino_v8,1,1088,NaN,boat,knife,NaN,knife5-truck3.png
dino_v8,1,1089,NaN,bear,knife,NaN,knife6-airplane1.png
dino_v8,1,1090,NaN,cat,knife,NaN,knife6-bicycle1.png
dino_v8,1,1091,NaN,bottle,knife,NaN,knife6-bird1.png
dino_v8,1,1092,NaN,clock,knife,NaN,knife6-boat3.png
dino_v8,1,1093,NaN,bear,knife,NaN,knife6-bottle3.png
dino_v8,1,1094,NaN,oven,knife,NaN,knife6-chair3.png
dino_v8,1,1095,NaN,clock,knife,NaN,knife6-clock2.png
dino_v8,1,1096,NaN,bottle,knife,NaN,knife6-dog2.png
dino_v8,1,1097,NaN,keyboard,knife,NaN,knife6-knife1.png
dino_v8,1,1098,NaN,boat,knife,NaN,knife6-oven3.png
dino_v8,1,1099,NaN,oven,knife,NaN,knife6-truck1.png
dino_v8,1,1100,NaN,keyboard,knife,NaN,knife7-airplane3.png
dino_v8,1,1101,NaN,knife,knife,NaN,knife7-bird3.png
dino_v8,1,1102,NaN,dog,knife,NaN,knife7-boat3.png
dino_v8,1,1103,NaN,bear,knife,NaN,knife7-bottle3.png
dino_v8,1,1104,NaN,clock,knife,NaN,knife7-car2.png
dino_v8,1,1105,NaN,oven,knife,NaN,knife7-chair2.png
dino_v8,1,1106,NaN,clock,knife,NaN,knife7-elephant2.png
dino_v8,1,1107,NaN,keyboard,knife,NaN,knife8-bicycle1.png
dino_v8,1,1108,NaN,keyboard,knife,NaN,knife8-boat1.png
dino_v8,1,1109,NaN,bear,knife,NaN,knife8-bottle3.png
dino_v8,1,1110,NaN,keyboard,knife,NaN,knife8-car2.png
dino_v8,1,1111,NaN,bottle,knife,NaN,knife8-cat2.png
dino_v8,1,1112,NaN,boat,knife,NaN,knife8-truck3.png
dino_v8,1,1113,NaN,oven,knife,NaN,knife9-airplane2.png
dino_v8,1,1114,NaN,car,knife,NaN,knife9-bear3.png
dino_v8,1,1115,NaN,cat,knife,NaN,knife9-bicycle1.png
dino_v8,1,1116,NaN,bottle,knife,NaN,knife9-bird1.png
dino_v8,1,1117,NaN,keyboard,knife,NaN,knife9-boat1.png
dino_v8,1,1118,NaN,clock,knife,NaN,knife9-bottle2.png
dino_v8,1,1119,NaN,clock,knife,NaN,knife9-chair1.png
dino_v8,1,1120,NaN,clock,knife,NaN,knife9-elephant2.png
dino_v8,1,1121,NaN,oven,oven,NaN,oven1-bird3.png
dino_v8,1,1122,NaN,keyboard,oven,NaN,oven1-boat3.png
dino_v8,1,1123,NaN,bottle,oven,NaN,oven1-cat1.png
dino_v8,1,1124,NaN,clock,oven,NaN,oven1-clock3.png
dino_v8,1,1125,NaN,clock,oven,NaN,oven1-dog3.png
dino_v8,1,1126,NaN,oven,oven,NaN,oven10-airplane2.png
dino_v8,1,1127,NaN,chair,oven,NaN,oven10-bear1.png
dino_v8,1,1128,NaN,cat,oven,NaN,oven10-bicycle1.png
dino_v8,1,1129,NaN,cat,oven,NaN,oven10-boat2.png
dino_v8,1,1130,NaN,airplane,oven,NaN,oven10-cat2.png
dino_v8,1,1131,NaN,knife,oven,NaN,oven10-oven3.png
dino_v8,1,1132,NaN,boat,oven,NaN,oven10-truck2.png
dino_v8,1,1133,NaN,car,oven,NaN,oven2-bear3.png
dino_v8,1,1134,NaN,cat,oven,NaN,oven2-bicycle1.png
dino_v8,1,1135,NaN,cat,oven,NaN,oven2-bird2.png
dino_v8,1,1136,NaN,bicycle,oven,NaN,oven2-boat3.png
dino_v8,1,1137,NaN,cat,oven,NaN,oven2-bottle1.png
dino_v8,1,1138,NaN,keyboard,oven,NaN,oven2-car1.png
dino_v8,1,1139,NaN,oven,oven,NaN,oven2-chair1.png
dino_v8,1,1140,NaN,bottle,oven,NaN,oven2-dog3.png
dino_v8,1,1141,NaN,boat,oven,NaN,oven2-oven3.png
dino_v8,1,1142,NaN,oven,oven,NaN,oven2-truck3.png
dino_v8,1,1143,NaN,clock,oven,NaN,oven3-airplane1.png
dino_v8,1,1144,NaN,airplane,oven,NaN,oven3-bear2.png
dino_v8,1,1145,NaN,bicycle,oven,NaN,oven3-boat3.png
dino_v8,1,1146,NaN,bear,oven,NaN,oven3-bottle3.png
dino_v8,1,1147,NaN,clock,oven,NaN,oven3-car2.png
dino_v8,1,1148,NaN,clock,oven,NaN,oven3-cat2.png
dino_v8,1,1149,NaN,clock,oven,NaN,oven3-clock3.png
dino_v8,1,1150,NaN,bear,oven,NaN,oven3-elephant3.png
dino_v8,1,1151,NaN,clock,oven,NaN,oven3-knife1.png
dino_v8,1,1152,NaN,boat,oven,NaN,oven3-truck1.png
dino_v8,1,1153,NaN,cat,oven,NaN,oven4-bicycle2.png
dino_v8,1,1154,NaN,oven,oven,NaN,oven4-bottle2.png
dino_v8,1,1155,NaN,keyboard,oven,NaN,oven4-car1.png
dino_v8,1,1156,NaN,oven,oven,NaN,oven4-chair1.png
dino_v8,1,1157,NaN,bear,oven,NaN,oven4-clock2.png
dino_v8,1,1158,NaN,chair,oven,NaN,oven4-dog1.png
dino_v8,1,1159,NaN,bear,oven,NaN,oven4-elephant3.png
dino_v8,1,1160,NaN,airplane,oven,NaN,oven4-keyboard3.png
dino_v8,1,1161,NaN,bicycle,oven,NaN,oven4-knife2.png
dino_v8,1,1162,NaN,keyboard,oven,NaN,oven4-truck3.png
dino_v8,1,1163,NaN,bear,oven,NaN,oven5-airplane1.png
dino_v8,1,1164,NaN,cat,oven,NaN,oven5-bicycle1.png
dino_v8,1,1165,NaN,oven,oven,NaN,oven5-bird1.png
dino_v8,1,1166,NaN,bear,oven,NaN,oven5-bottle3.png
dino_v8,1,1167,NaN,bottle,oven,NaN,oven5-dog3.png
dino_v8,1,1168,NaN,bear,oven,NaN,oven5-elephant1.png
dino_v8,1,1169,NaN,airplane,oven,NaN,oven5-keyboard2.png
dino_v8,1,1170,NaN,keyboard,oven,NaN,oven6-airplane3.png
dino_v8,1,1171,NaN,airplane,oven,NaN,oven6-bear2.png
dino_v8,1,1172,NaN,keyboard,oven,NaN,oven6-bicycle1.png
dino_v8,1,1173,NaN,bottle,oven,NaN,oven6-bird1.png
dino_v8,1,1174,NaN,oven,oven,NaN,oven6-chair3.png
dino_v8,1,1175,NaN,clock,oven,NaN,oven6-elephant2.png
dino_v8,1,1176,NaN,oven,oven,NaN,oven6-knife3.png
dino_v8,1,1177,NaN,boat,oven,NaN,oven6-oven3.png
dino_v8,1,1178,NaN,boat,oven,NaN,oven6-truck1.png
dino_v8,1,1179,NaN,cat,oven,NaN,oven7-bottle1.png
dino_v8,1,1180,NaN,clock,oven,NaN,oven7-car3.png
dino_v8,1,1181,NaN,clock,oven,NaN,oven7-cat1.png
dino_v8,1,1182,NaN,bicycle,oven,NaN,oven7-clock2.png
dino_v8,1,1183,NaN,chair,oven,NaN,oven7-dog2.png
dino_v8,1,1184,NaN,bird,oven,NaN,oven7-elephant1.png
dino_v8,1,1185,NaN,cat,oven,NaN,oven7-keyboard1.png
dino_v8,1,1186,NaN,oven,oven,NaN,oven7-oven1.png
dino_v8,1,1187,NaN,oven,oven,NaN,oven8-cat3.png
dino_v8,1,1188,NaN,oven,oven,NaN,oven8-chair1.png
dino_v8,1,1189,NaN,airplane,oven,NaN,oven8-keyboard3.png
dino_v8,1,1190,NaN,clock,oven,NaN,oven8-knife2.png
dino_v8,1,1191,NaN,oven,oven,NaN,oven9-airplane2.png
dino_v8,1,1192,NaN,airplane,oven,NaN,oven9-bear2.png
dino_v8,1,1193,NaN,elephant,oven,NaN,oven9-bird3.png
dino_v8,1,1194,NaN,boat,oven,NaN,oven9-boat2.png
dino_v8,1,1195,NaN,keyboard,oven,NaN,oven9-car2.png
dino_v8,1,1196,NaN,bird,oven,NaN,oven9-chair1.png
dino_v8,1,1197,NaN,bear,oven,NaN,oven9-clock2.png
dino_v8,1,1198,NaN,cat,oven,NaN,oven9-keyboard1.png
dino_v8,1,1199,NaN,oven,oven,NaN,oven9-knife3.png
dino_v8,1,1200,NaN,oven,oven,NaN,oven9-oven1.png
dino_v8,1,1201,NaN,chair,truck,NaN,truck1-bear1.png
dino_v8,1,1202,NaN,knife,truck,NaN,truck1-bicycle3.png
dino_v8,1,1203,NaN,oven,truck,NaN,truck1-bird1.png
dino_v8,1,1204,NaN,keyboard,truck,NaN,truck1-car3.png
dino_v8,1,1205,NaN,chair,truck,NaN,truck1-cat1.png
dino_v8,1,1206,NaN,cat,truck,NaN,truck1-chair2.png
dino_v8,1,1207,NaN,bicycle,truck,NaN,truck1-clock3.png
dino_v8,1,1208,NaN,chair,truck,NaN,truck1-dog1.png
dino_v8,1,1209,NaN,cat,truck,NaN,truck1-knife1.png
dino_v8,1,1210,NaN,bear,truck,NaN,truck10-airplane1.png
dino_v8,1,1211,NaN,keyboard,truck,NaN,truck10-bicycle1.png
dino_v8,1,1212,NaN,keyboard,truck,NaN,truck10-car3.png
dino_v8,1,1213,NaN,bicycle,truck,NaN,truck10-clock1.png
dino_v8,1,1214,NaN,bear,truck,NaN,truck10-elephant3.png
dino_v8,1,1215,NaN,keyboard,truck,NaN,truck10-truck3.png
dino_v8,1,1216,NaN,oven,truck,NaN,truck2-airplane3.png
dino_v8,1,1217,NaN,cat,truck,NaN,truck2-bicycle2.png
dino_v8,1,1218,NaN,cat,truck,NaN,truck2-bird2.png
dino_v8,1,1219,NaN,boat,truck,NaN,truck2-boat3.png
dino_v8,1,1220,NaN,bear,truck,NaN,truck2-bottle3.png
dino_v8,1,1221,NaN,clock,truck,NaN,truck2-car3.png
dino_v8,1,1222,NaN,clock,truck,NaN,truck2-chair1.png
dino_v8,1,1223,NaN,bicycle,truck,NaN,truck2-clock1.png
dino_v8,1,1224,NaN,bird,truck,NaN,truck2-elephant1.png
dino_v8,1,1225,NaN,cat,truck,NaN,truck2-keyboard1.png
dino_v8,1,1226,NaN,oven,truck,NaN,truck2-oven3.png
dino_v8,1,1227,NaN,car,truck,NaN,truck3-bear3.png
dino_v8,1,1228,NaN,knife,truck,NaN,truck3-bicycle1.png
dino_v8,1,1229,NaN,cat,truck,NaN,truck3-bird2.png
dino_v8,1,1230,NaN,keyboard,truck,NaN,truck3-car3.png
dino_v8,1,1231,NaN,chair,truck,NaN,truck3-cat1.png
dino_v8,1,1232,NaN,cat,truck,NaN,truck3-chair2.png
dino_v8,1,1233,NaN,clock,truck,NaN,truck3-clock3.png
dino_v8,1,1234,NaN,chair,truck,NaN,truck3-dog3.png
dino_v8,1,1235,NaN,oven,truck,NaN,truck3-keyboard3.png
dino_v8,1,1236,NaN,oven,truck,NaN,truck3-knife2.png
dino_v8,1,1237,NaN,oven,truck,NaN,truck3-oven2.png
dino_v8,1,1238,NaN,bicycle,truck,NaN,truck4-airplane3.png
dino_v8,1,1239,NaN,knife,truck,NaN,truck4-bear1.png
dino_v8,1,1240,NaN,bicycle,truck,NaN,truck4-boat3.png
dino_v8,1,1241,NaN,clock,truck,NaN,truck4-bottle2.png
dino_v8,1,1242,NaN,cat,truck,NaN,truck4-knife1.png
dino_v8,1,1243,NaN,oven,truck,NaN,truck4-oven2.png
dino_v8,1,1244,NaN,oven,truck,NaN,truck5-airplane2.png
dino_v8,1,1245,NaN,cat,truck,NaN,truck5-bird2.png
dino_v8,1,1246,NaN,keyboard,truck,NaN,truck5-car1.png
dino_v8,1,1247,NaN,bicycle,truck,NaN,truck5-cat3.png
dino_v8,1,1248,NaN,bottle,truck,NaN,truck5-dog3.png
dino_v8,1,1249,NaN,cat,truck,NaN,truck5-keyboard1.png
dino_v8,1,1250,NaN,oven,truck,NaN,truck5-knife3.png
dino_v8,1,1251,NaN,boat,truck,NaN,truck5-truck1.png
dino_v8,1,1252,NaN,car,truck,NaN,truck6-bear2.png
dino_v8,1,1253,NaN,cat,truck,NaN,truck6-bicycle1.png
dino_v8,1,1254,NaN,cat,truck,NaN,truck6-boat2.png
dino_v8,1,1255,NaN,bear,truck,NaN,truck6-bottle3.png
dino_v8,1,1256,NaN,clock,truck,NaN,truck6-cat2.png
dino_v8,1,1257,NaN,keyboard,truck,NaN,truck6-clock2.png
dino_v8,1,1258,NaN,bottle,truck,NaN,truck6-dog2.png
dino_v8,1,1259,NaN,keyboard,truck,NaN,truck6-knife2.png
dino_v8,1,1260,NaN,oven,truck,NaN,truck6-oven3.png
dino_v8,1,1261,NaN,boat,truck,NaN,truck6-truck2.png
dino_v8,1,1262,NaN,airplane,truck,NaN,truck7-bear2.png
dino_v8,1,1263,NaN,cat,truck,NaN,truck7-bird2.png
dino_v8,1,1264,NaN,cat,truck,NaN,truck7-boat1.png
dino_v8,1,1265,NaN,cat,truck,NaN,truck7-chair2.png
dino_v8,1,1266,NaN,clock,truck,NaN,truck7-elephant2.png
dino_v8,1,1267,NaN,oven,truck,NaN,truck7-keyboard3.png
dino_v8,1,1268,NaN,boat,truck,NaN,truck7-oven2.png
dino_v8,1,1269,NaN,boat,truck,NaN,truck7-truck2.png
dino_v8,1,1270,NaN,clock,truck,NaN,truck8-bottle2.png
dino_v8,1,1271,NaN,airplane,truck,NaN,truck8-cat2.png
dino_v8,1,1272,NaN,chair,truck,NaN,truck8-dog3.png
dino_v8,1,1273,NaN,bear,truck,NaN,truck8-elephant1.png
dino_v8,1,1274,NaN,airplane,truck,NaN,truck8-keyboard2.png
dino_v8,1,1275,NaN,keyboard,truck,NaN,truck9-airplane2.png
dino_v8,1,1276,NaN,knife,truck,NaN,truck9-boat3.png
dino_v8,1,1277,NaN,clock,truck,NaN,truck9-bottle2.png
dino_v8,1,1278,NaN,oven,truck,NaN,truck9-chair3.png
dino_v8,1,1279,NaN,bear,truck,NaN,truck9-elephant1.png
dino_v8,1,1280,NaN,keyboard,truck,NaN,truck9-truck3.png
