subj,session,trial,rt,object_response,category,condition,imagename
swin_base,1,1,NaN,chair,airplane,NaN,airplane1-bicycle2.png
swin_base,1,2,NaN,elephant,airplane,NaN,airplane1-chair2.png
swin_base,1,3,NaN,elephant,airplane,NaN,airplane1-clock1.png
swin_base,1,4,NaN,dog,airplane,NaN,airplane1-elephant1.png
swin_base,1,5,NaN,truck,airplane,NaN,airplane10-airplane1.png
swin_base,1,6,NaN,dog,airplane,NaN,airplane10-bear3.png
swin_base,1,7,NaN,elephant,airplane,NaN,airplane10-boat3.png
swin_base,1,8,NaN,elephant,airplane,NaN,airplane10-car3.png
swin_base,1,9,NaN,keyboard,airplane,NaN,airplane10-cat2.png
swin_base,1,10,NaN,clock,airplane,NaN,airplane10-dog3.png
swin_base,1,11,NaN,dog,airplane,NaN,airplane10-elephant1.png
swin_base,1,12,NaN,elephant,airplane,NaN,airplane10-knife3.png
swin_base,1,13,NaN,elephant,airplane,NaN,airplane10-oven2.png
swin_base,1,14,NaN,dog,airplane,NaN,airplane10-truck1.png
swin_base,1,15,NaN,dog,airplane,NaN,airplane2-bear1.png
swin_base,1,16,NaN,bottle,airplane,NaN,airplane2-bicycle1.png
swin_base,1,17,NaN,bird,airplane,NaN,airplane2-bird3.png
swin_base,1,18,NaN,keyboard,airplane,NaN,airplane2-bottle1.png
swin_base,1,19,NaN,dog,airplane,NaN,airplane2-cat1.png
swin_base,1,20,NaN,keyboard,airplane,NaN,airplane2-dog1.png
swin_base,1,21,NaN,elephant,airplane,NaN,airplane3-airplane2.png
swin_base,1,22,NaN,elephant,airplane,NaN,airplane3-car1.png
swin_base,1,23,NaN,dog,airplane,NaN,airplane3-cat1.png
swin_base,1,24,NaN,elephant,airplane,NaN,airplane3-chair3.png
swin_base,1,25,NaN,elephant,airplane,NaN,airplane3-clock1.png
swin_base,1,26,NaN,keyboard,airplane,NaN,airplane3-dog1.png
swin_base,1,27,NaN,dog,airplane,NaN,airplane3-elephant1.png
swin_base,1,28,NaN,elephant,airplane,NaN,airplane3-keyboard2.png
swin_base,1,29,NaN,elephant,airplane,NaN,airplane3-oven1.png
swin_base,1,30,NaN,truck,airplane,NaN,airplane4-airplane1.png
swin_base,1,31,NaN,keyboard,airplane,NaN,airplane4-bear3.png
swin_base,1,32,NaN,keyboard,airplane,NaN,airplane4-bicycle2.png
swin_base,1,33,NaN,elephant,airplane,NaN,airplane4-bird3.png
swin_base,1,34,NaN,knife,airplane,NaN,airplane4-boat3.png
swin_base,1,35,NaN,keyboard,airplane,NaN,airplane4-bottle1.png
swin_base,1,36,NaN,elephant,airplane,NaN,airplane4-car1.png
swin_base,1,37,NaN,bear,airplane,NaN,airplane4-cat3.png
swin_base,1,38,NaN,dog,airplane,NaN,airplane4-dog2.png
swin_base,1,39,NaN,dog,airplane,NaN,airplane4-elephant1.png
swin_base,1,40,NaN,elephant,airplane,NaN,airplane4-keyboard3.png
swin_base,1,41,NaN,elephant,airplane,NaN,airplane4-knife1.png
swin_base,1,42,NaN,keyboard,airplane,NaN,airplane4-truck2.png
swin_base,1,43,NaN,dog,airplane,NaN,airplane5-bear2.png
swin_base,1,44,NaN,dog,airplane,NaN,airplane5-bicycle1.png
swin_base,1,45,NaN,knife,airplane,NaN,airplane5-bird2.png
swin_base,1,46,NaN,knife,airplane,NaN,airplane5-boat3.png
swin_base,1,47,NaN,clock,airplane,NaN,airplane5-bottle3.png
swin_base,1,48,NaN,elephant,airplane,NaN,airplane5-chair3.png
swin_base,1,49,NaN,dog,airplane,NaN,airplane5-dog3.png
swin_base,1,50,NaN,elephant,airplane,NaN,airplane5-knife1.png
swin_base,1,51,NaN,bird,airplane,NaN,airplane5-oven3.png
swin_base,1,52,NaN,chair,airplane,NaN,airplane6-bear3.png
swin_base,1,53,NaN,elephant,airplane,NaN,airplane6-bottle2.png
swin_base,1,54,NaN,elephant,airplane,NaN,airplane6-chair3.png
swin_base,1,55,NaN,bottle,airplane,NaN,airplane6-keyboard3.png
swin_base,1,56,NaN,elephant,airplane,NaN,airplane6-knife1.png
swin_base,1,57,NaN,elephant,airplane,NaN,airplane7-airplane3.png
swin_base,1,58,NaN,chair,airplane,NaN,airplane7-bird3.png
swin_base,1,59,NaN,chair,airplane,NaN,airplane7-boat2.png
swin_base,1,60,NaN,dog,airplane,NaN,airplane7-bottle3.png
swin_base,1,61,NaN,elephant,airplane,NaN,airplane7-car1.png
swin_base,1,62,NaN,dog,airplane,NaN,airplane7-cat3.png
swin_base,1,63,NaN,elephant,airplane,NaN,airplane7-clock3.png
swin_base,1,64,NaN,elephant,airplane,NaN,airplane7-keyboard1.png
swin_base,1,65,NaN,dog,airplane,NaN,airplane7-truck1.png
swin_base,1,66,NaN,keyboard,airplane,NaN,airplane8-bicycle3.png
swin_base,1,67,NaN,bear,airplane,NaN,airplane8-bird1.png
swin_base,1,68,NaN,elephant,airplane,NaN,airplane8-chair1.png
swin_base,1,69,NaN,elephant,airplane,NaN,airplane8-clock2.png
swin_base,1,70,NaN,dog,airplane,NaN,airplane8-elephant3.png
swin_base,1,71,NaN,elephant,airplane,NaN,airplane8-oven2.png
swin_base,1,72,NaN,elephant,airplane,NaN,airplane8-truck3.png
swin_base,1,73,NaN,elephant,airplane,NaN,airplane9-airplane2.png
swin_base,1,74,NaN,elephant,airplane,NaN,airplane9-boat1.png
swin_base,1,75,NaN,knife,airplane,NaN,airplane9-car2.png
swin_base,1,76,NaN,elephant,airplane,NaN,airplane9-clock1.png
swin_base,1,77,NaN,elephant,airplane,NaN,airplane9-keyboard2.png
swin_base,1,78,NaN,elephant,airplane,NaN,airplane9-knife3.png
swin_base,1,79,NaN,elephant,airplane,NaN,airplane9-oven2.png
swin_base,1,80,NaN,clock,airplane,NaN,airplane9-truck1.png
swin_base,1,81,NaN,bird,bear,NaN,bear1-airplane3.png
swin_base,1,82,NaN,dog,bear,NaN,bear1-bear3.png
swin_base,1,83,NaN,dog,bear,NaN,bear1-bicycle3.png
swin_base,1,84,NaN,dog,bear,NaN,bear1-bird2.png
swin_base,1,85,NaN,bottle,bear,NaN,bear1-chair2.png
swin_base,1,86,NaN,bird,bear,NaN,bear1-clock2.png
swin_base,1,87,NaN,dog,bear,NaN,bear1-elephant1.png
swin_base,1,88,NaN,dog,bear,NaN,bear10-bear2.png
swin_base,1,89,NaN,keyboard,bear,NaN,bear10-bottle1.png
swin_base,1,90,NaN,elephant,bear,NaN,bear10-car2.png
swin_base,1,91,NaN,keyboard,bear,NaN,bear10-cat2.png
swin_base,1,92,NaN,elephant,bear,NaN,bear10-chair2.png
swin_base,1,93,NaN,elephant,bear,NaN,bear10-clock1.png
swin_base,1,94,NaN,dog,bear,NaN,bear10-elephant1.png
swin_base,1,95,NaN,elephant,bear,NaN,bear10-keyboard3.png
swin_base,1,96,NaN,elephant,bear,NaN,bear10-knife2.png
swin_base,1,97,NaN,elephant,bear,NaN,bear10-oven1.png
swin_base,1,98,NaN,dog,bear,NaN,bear10-truck1.png
swin_base,1,99,NaN,elephant,bear,NaN,bear2-airplane1.png
swin_base,1,100,NaN,dog,bear,NaN,bear2-bird3.png
swin_base,1,101,NaN,elephant,bear,NaN,bear2-car2.png
swin_base,1,102,NaN,keyboard,bear,NaN,bear2-cat2.png
swin_base,1,103,NaN,dog,bear,NaN,bear2-dog1.png
swin_base,1,104,NaN,dog,bear,NaN,bear2-elephant1.png
swin_base,1,105,NaN,elephant,bear,NaN,bear2-keyboard2.png
swin_base,1,106,NaN,elephant,bear,NaN,bear2-knife2.png
swin_base,1,107,NaN,elephant,bear,NaN,bear2-oven1.png
swin_base,1,108,NaN,elephant,bear,NaN,bear3-airplane1.png
swin_base,1,109,NaN,elephant,bear,NaN,bear3-bicycle2.png
swin_base,1,110,NaN,bird,bear,NaN,bear3-bird3.png
swin_base,1,111,NaN,elephant,bear,NaN,bear3-car2.png
swin_base,1,112,NaN,dog,bear,NaN,bear3-cat1.png
swin_base,1,113,NaN,elephant,bear,NaN,bear3-chair2.png
swin_base,1,114,NaN,dog,bear,NaN,bear3-dog3.png
swin_base,1,115,NaN,knife,bear,NaN,bear3-keyboard2.png
swin_base,1,116,NaN,elephant,bear,NaN,bear3-truck3.png
swin_base,1,117,NaN,dog,bear,NaN,bear4-boat2.png
swin_base,1,118,NaN,knife,bear,NaN,bear4-car3.png
swin_base,1,119,NaN,dog,bear,NaN,bear4-cat3.png
swin_base,1,120,NaN,clock,bear,NaN,bear4-clock3.png
swin_base,1,121,NaN,dog,bear,NaN,bear4-elephant2.png
swin_base,1,122,NaN,knife,bear,NaN,bear4-keyboard3.png
swin_base,1,123,NaN,elephant,bear,NaN,bear4-knife1.png
swin_base,1,124,NaN,elephant,bear,NaN,bear4-oven2.png
swin_base,1,125,NaN,elephant,bear,NaN,bear4-truck3.png
swin_base,1,126,NaN,bird,bear,NaN,bear5-airplane3.png
swin_base,1,127,NaN,cat,bear,NaN,bear5-bicycle3.png
swin_base,1,128,NaN,bear,bear,NaN,bear5-bird1.png
swin_base,1,129,NaN,keyboard,bear,NaN,bear5-boat2.png
swin_base,1,130,NaN,keyboard,bear,NaN,bear5-bottle1.png
swin_base,1,131,NaN,elephant,bear,NaN,bear5-chair1.png
swin_base,1,132,NaN,elephant,bear,NaN,bear5-oven3.png
swin_base,1,133,NaN,dog,bear,NaN,bear6-bear1.png
swin_base,1,134,NaN,bird,bear,NaN,bear6-bird2.png
swin_base,1,135,NaN,elephant,bear,NaN,bear6-boat3.png
swin_base,1,136,NaN,knife,bear,NaN,bear6-bottle3.png
swin_base,1,137,NaN,knife,bear,NaN,bear6-car2.png
swin_base,1,138,NaN,dog,bear,NaN,bear6-cat3.png
swin_base,1,139,NaN,elephant,bear,NaN,bear6-chair1.png
swin_base,1,140,NaN,elephant,bear,NaN,bear6-clock1.png
swin_base,1,141,NaN,dog,bear,NaN,bear7-bear2.png
swin_base,1,142,NaN,elephant,bear,NaN,bear7-bicycle2.png
swin_base,1,143,NaN,elephant,bear,NaN,bear7-clock1.png
swin_base,1,144,NaN,dog,bear,NaN,bear7-dog3.png
swin_base,1,145,NaN,bird,bear,NaN,bear7-oven3.png
swin_base,1,146,NaN,knife,bear,NaN,bear7-truck1.png
swin_base,1,147,NaN,elephant,bear,NaN,bear8-airplane1.png
swin_base,1,148,NaN,dog,bear,NaN,bear8-bear1.png
swin_base,1,149,NaN,cat,bear,NaN,bear8-bicycle3.png
swin_base,1,150,NaN,keyboard,bear,NaN,bear8-boat2.png
swin_base,1,151,NaN,bird,bear,NaN,bear8-bottle1.png
swin_base,1,152,NaN,dog,bear,NaN,bear8-dog1.png
swin_base,1,153,NaN,dog,bear,NaN,bear8-elephant2.png
swin_base,1,154,NaN,elephant,bear,NaN,bear8-knife3.png
swin_base,1,155,NaN,elephant,bear,NaN,bear8-truck3.png
swin_base,1,156,NaN,keyboard,bear,NaN,bear9-boat2.png
swin_base,1,157,NaN,elephant,bear,NaN,bear9-bottle2.png
swin_base,1,158,NaN,dog,bear,NaN,bear9-dog1.png
swin_base,1,159,NaN,elephant,bear,NaN,bear9-keyboard3.png
swin_base,1,160,NaN,knife,bear,NaN,bear9-knife2.png
swin_base,1,161,NaN,bird,bicycle,NaN,bicycle1-airplane2.png
swin_base,1,162,NaN,dog,bicycle,NaN,bicycle1-bear1.png
swin_base,1,163,NaN,chair,bicycle,NaN,bicycle1-bicycle3.png
swin_base,1,164,NaN,bear,bicycle,NaN,bicycle1-bird1.png
swin_base,1,165,NaN,bird,bicycle,NaN,bicycle1-boat3.png
swin_base,1,166,NaN,bird,bicycle,NaN,bicycle1-bottle3.png
swin_base,1,167,NaN,elephant,bicycle,NaN,bicycle1-chair1.png
swin_base,1,168,NaN,elephant,bicycle,NaN,bicycle1-clock3.png
swin_base,1,169,NaN,dog,bicycle,NaN,bicycle1-dog3.png
swin_base,1,170,NaN,bear,bicycle,NaN,bicycle1-elephant2.png
swin_base,1,171,NaN,elephant,bicycle,NaN,bicycle1-knife3.png
swin_base,1,172,NaN,elephant,bicycle,NaN,bicycle1-oven1.png
swin_base,1,173,NaN,bird,bicycle,NaN,bicycle1-truck1.png
swin_base,1,174,NaN,dog,bicycle,NaN,bicycle10-airplane2.png
swin_base,1,175,NaN,elephant,bicycle,NaN,bicycle10-boat3.png
swin_base,1,176,NaN,bird,bicycle,NaN,bicycle10-clock2.png
swin_base,1,177,NaN,dog,bicycle,NaN,bicycle10-dog3.png
swin_base,1,178,NaN,bear,bicycle,NaN,bicycle10-elephant2.png
swin_base,1,179,NaN,chair,bicycle,NaN,bicycle2-bicycle1.png
swin_base,1,180,NaN,bird,bicycle,NaN,bicycle2-bird3.png
swin_base,1,181,NaN,elephant,bicycle,NaN,bicycle2-bottle1.png
swin_base,1,182,NaN,elephant,bicycle,NaN,bicycle2-car2.png
swin_base,1,183,NaN,keyboard,bicycle,NaN,bicycle2-dog1.png
swin_base,1,184,NaN,bear,bicycle,NaN,bicycle2-keyboard2.png
swin_base,1,185,NaN,elephant,bicycle,NaN,bicycle2-knife2.png
swin_base,1,186,NaN,bird,bicycle,NaN,bicycle3-bird1.png
swin_base,1,187,NaN,bear,bicycle,NaN,bicycle3-elephant2.png
swin_base,1,188,NaN,dog,bicycle,NaN,bicycle3-keyboard1.png
swin_base,1,189,NaN,elephant,bicycle,NaN,bicycle3-oven3.png
swin_base,1,190,NaN,elephant,bicycle,NaN,bicycle3-truck3.png
swin_base,1,191,NaN,truck,bicycle,NaN,bicycle4-airplane1.png
swin_base,1,192,NaN,chair,bicycle,NaN,bicycle4-bicycle3.png
swin_base,1,193,NaN,dog,bicycle,NaN,bicycle4-boat1.png
swin_base,1,194,NaN,bird,bicycle,NaN,bicycle4-bottle1.png
swin_base,1,195,NaN,dog,bicycle,NaN,bicycle4-car2.png
swin_base,1,196,NaN,dog,bicycle,NaN,bicycle4-cat1.png
swin_base,1,197,NaN,elephant,bicycle,NaN,bicycle4-chair2.png
swin_base,1,198,NaN,elephant,bicycle,NaN,bicycle4-clock3.png
swin_base,1,199,NaN,elephant,bicycle,NaN,bicycle4-keyboard3.png
swin_base,1,200,NaN,elephant,bicycle,NaN,bicycle4-knife3.png
swin_base,1,201,NaN,bird,bicycle,NaN,bicycle4-oven3.png
swin_base,1,202,NaN,elephant,bicycle,NaN,bicycle4-truck3.png
swin_base,1,203,NaN,dog,bicycle,NaN,bicycle5-bear1.png
swin_base,1,204,NaN,bird,bicycle,NaN,bicycle5-bottle3.png
swin_base,1,205,NaN,bird,bicycle,NaN,bicycle5-car3.png
swin_base,1,206,NaN,dog,bicycle,NaN,bicycle5-cat1.png
swin_base,1,207,NaN,bird,bicycle,NaN,bicycle5-chair2.png
swin_base,1,208,NaN,dog,bicycle,NaN,bicycle5-dog2.png
swin_base,1,209,NaN,bear,bicycle,NaN,bicycle5-elephant1.png
swin_base,1,210,NaN,elephant,bicycle,NaN,bicycle5-keyboard3.png
swin_base,1,211,NaN,elephant,bicycle,NaN,bicycle5-oven3.png
swin_base,1,212,NaN,elephant,bicycle,NaN,bicycle6-airplane2.png
swin_base,1,213,NaN,dog,bicycle,NaN,bicycle6-bicycle3.png
swin_base,1,214,NaN,dog,bicycle,NaN,bicycle6-boat2.png
swin_base,1,215,NaN,elephant,bicycle,NaN,bicycle6-car2.png
swin_base,1,216,NaN,dog,bicycle,NaN,bicycle6-cat1.png
swin_base,1,217,NaN,dog,bicycle,NaN,bicycle6-dog2.png
swin_base,1,218,NaN,chair,bicycle,NaN,bicycle7-bear2.png
swin_base,1,219,NaN,bird,bicycle,NaN,bicycle7-bicycle2.png
swin_base,1,220,NaN,dog,bicycle,NaN,bicycle7-cat1.png
swin_base,1,221,NaN,elephant,bicycle,NaN,bicycle7-clock3.png
swin_base,1,222,NaN,bear,bicycle,NaN,bicycle7-elephant2.png
swin_base,1,223,NaN,elephant,bicycle,NaN,bicycle7-knife2.png
swin_base,1,224,NaN,truck,bicycle,NaN,bicycle7-oven1.png
swin_base,1,225,NaN,elephant,bicycle,NaN,bicycle7-truck3.png
swin_base,1,226,NaN,bird,bicycle,NaN,bicycle8-bear2.png
swin_base,1,227,NaN,dog,bicycle,NaN,bicycle8-bird2.png
swin_base,1,228,NaN,elephant,bicycle,NaN,bicycle8-boat1.png
swin_base,1,229,NaN,bird,bicycle,NaN,bicycle8-chair2.png
swin_base,1,230,NaN,bird,bicycle,NaN,bicycle8-clock3.png
swin_base,1,231,NaN,elephant,bicycle,NaN,bicycle8-truck1.png
swin_base,1,232,NaN,bird,bicycle,NaN,bicycle9-airplane2.png
swin_base,1,233,NaN,dog,bicycle,NaN,bicycle9-bear1.png
swin_base,1,234,NaN,bird,bicycle,NaN,bicycle9-bird3.png
swin_base,1,235,NaN,elephant,bicycle,NaN,bicycle9-bottle1.png
swin_base,1,236,NaN,elephant,bicycle,NaN,bicycle9-car1.png
swin_base,1,237,NaN,dog,bicycle,NaN,bicycle9-cat3.png
swin_base,1,238,NaN,elephant,bicycle,NaN,bicycle9-chair1.png
swin_base,1,239,NaN,elephant,bicycle,NaN,bicycle9-keyboard3.png
swin_base,1,240,NaN,elephant,bicycle,NaN,bicycle9-knife3.png
swin_base,1,241,NaN,elephant,bird,NaN,bird1-airplane2.png
swin_base,1,242,NaN,dog,bird,NaN,bird1-bear1.png
swin_base,1,243,NaN,dog,bird,NaN,bird1-bicycle2.png
swin_base,1,244,NaN,elephant,bird,NaN,bird1-boat1.png
swin_base,1,245,NaN,elephant,bird,NaN,bird1-chair2.png
swin_base,1,246,NaN,elephant,bird,NaN,bird1-clock3.png
swin_base,1,247,NaN,dog,bird,NaN,bird1-elephant2.png
swin_base,1,248,NaN,clock,bird,NaN,bird1-keyboard3.png
swin_base,1,249,NaN,elephant,bird,NaN,bird1-knife3.png
swin_base,1,250,NaN,oven,bird,NaN,bird1-oven1.png
swin_base,1,251,NaN,elephant,bird,NaN,bird1-truck1.png
swin_base,1,252,NaN,clock,bird,NaN,bird10-bear2.png
swin_base,1,253,NaN,dog,bird,NaN,bird10-bicycle1.png
swin_base,1,254,NaN,truck,bird,NaN,bird10-bird2.png
swin_base,1,255,NaN,keyboard,bird,NaN,bird10-cat1.png
swin_base,1,256,NaN,elephant,bird,NaN,bird10-chair1.png
swin_base,1,257,NaN,elephant,bird,NaN,bird10-clock1.png
swin_base,1,258,NaN,dog,bird,NaN,bird10-elephant2.png
swin_base,1,259,NaN,elephant,bird,NaN,bird2-airplane3.png
swin_base,1,260,NaN,car,bird,NaN,bird2-bird2.png
swin_base,1,261,NaN,elephant,bird,NaN,bird2-car3.png
swin_base,1,262,NaN,elephant,bird,NaN,bird2-clock3.png
swin_base,1,263,NaN,dog,bird,NaN,bird2-dog2.png
swin_base,1,264,NaN,elephant,bird,NaN,bird2-knife1.png
swin_base,1,265,NaN,keyboard,bird,NaN,bird3-bear3.png
swin_base,1,266,NaN,chair,bird,NaN,bird3-bird2.png
swin_base,1,267,NaN,knife,bird,NaN,bird3-boat3.png
swin_base,1,268,NaN,elephant,bird,NaN,bird3-bottle2.png
swin_base,1,269,NaN,dog,bird,NaN,bird3-cat1.png
swin_base,1,270,NaN,clock,bird,NaN,bird3-dog1.png
swin_base,1,271,NaN,elephant,bird,NaN,bird3-knife3.png
swin_base,1,272,NaN,elephant,bird,NaN,bird3-oven1.png
swin_base,1,273,NaN,elephant,bird,NaN,bird3-truck3.png
swin_base,1,274,NaN,truck,bird,NaN,bird4-airplane1.png
swin_base,1,275,NaN,chair,bird,NaN,bird4-bicycle2.png
swin_base,1,276,NaN,dog,bird,NaN,bird4-cat3.png
swin_base,1,277,NaN,elephant,bird,NaN,bird4-clock1.png
swin_base,1,278,NaN,dog,bird,NaN,bird4-dog3.png
swin_base,1,279,NaN,truck,bird,NaN,bird5-airplane3.png
swin_base,1,280,NaN,keyboard,bird,NaN,bird5-bear3.png
swin_base,1,281,NaN,chair,bird,NaN,bird5-bicycle1.png
swin_base,1,282,NaN,truck,bird,NaN,bird5-bird1.png
swin_base,1,283,NaN,boat,bird,NaN,bird5-car2.png
swin_base,1,284,NaN,car,bird,NaN,bird5-cat2.png
swin_base,1,285,NaN,elephant,bird,NaN,bird5-chair1.png
swin_base,1,286,NaN,car,bird,NaN,bird5-dog2.png
swin_base,1,287,NaN,truck,bird,NaN,bird5-keyboard2.png
swin_base,1,288,NaN,bird,bird,NaN,bird5-oven3.png
swin_base,1,289,NaN,knife,bird,NaN,bird5-truck2.png
swin_base,1,290,NaN,elephant,bird,NaN,bird6-airplane2.png
swin_base,1,291,NaN,keyboard,bird,NaN,bird6-boat2.png
swin_base,1,292,NaN,clock,bird,NaN,bird6-bottle3.png
swin_base,1,293,NaN,elephant,bird,NaN,bird6-car3.png
swin_base,1,294,NaN,dog,bird,NaN,bird6-elephant2.png
swin_base,1,295,NaN,clock,bird,NaN,bird6-oven1.png
swin_base,1,296,NaN,knife,bird,NaN,bird6-truck2.png
swin_base,1,297,NaN,car,bird,NaN,bird7-bird2.png
swin_base,1,298,NaN,elephant,bird,NaN,bird7-boat1.png
swin_base,1,299,NaN,keyboard,bird,NaN,bird7-bottle1.png
swin_base,1,300,NaN,clock,bird,NaN,bird7-car2.png
swin_base,1,301,NaN,dog,bird,NaN,bird7-cat3.png
swin_base,1,302,NaN,elephant,bird,NaN,bird7-keyboard3.png
swin_base,1,303,NaN,car,bird,NaN,bird7-knife2.png
swin_base,1,304,NaN,bird,bird,NaN,bird7-oven3.png
swin_base,1,305,NaN,bear,bird,NaN,bird7-truck2.png
swin_base,1,306,NaN,elephant,bird,NaN,bird8-boat3.png
swin_base,1,307,NaN,keyboard,bird,NaN,bird8-bottle1.png
swin_base,1,308,NaN,dog,bird,NaN,bird8-car2.png
swin_base,1,309,NaN,elephant,bird,NaN,bird8-chair1.png
swin_base,1,310,NaN,elephant,bird,NaN,bird8-clock1.png
swin_base,1,311,NaN,keyboard,bird,NaN,bird8-elephant1.png
swin_base,1,312,NaN,dog,bird,NaN,bird8-keyboard2.png
swin_base,1,313,NaN,car,bird,NaN,bird8-knife2.png
swin_base,1,314,NaN,keyboard,bird,NaN,bird9-bear3.png
swin_base,1,315,NaN,bottle,bird,NaN,bird9-bicycle3.png
swin_base,1,316,NaN,car,bird,NaN,bird9-bottle3.png
swin_base,1,317,NaN,elephant,bird,NaN,bird9-chair1.png
swin_base,1,318,NaN,car,bird,NaN,bird9-dog2.png
swin_base,1,319,NaN,bear,bird,NaN,bird9-elephant2.png
swin_base,1,320,NaN,truck,bird,NaN,bird9-keyboard1.png
swin_base,1,321,NaN,dog,boat,NaN,boat1-bear1.png
swin_base,1,322,NaN,bottle,boat,NaN,boat1-bicycle2.png
swin_base,1,323,NaN,elephant,boat,NaN,boat1-bird3.png
swin_base,1,324,NaN,keyboard,boat,NaN,boat1-car2.png
swin_base,1,325,NaN,elephant,boat,NaN,boat1-chair3.png
swin_base,1,326,NaN,dog,boat,NaN,boat1-elephant3.png
swin_base,1,327,NaN,bottle,boat,NaN,boat1-keyboard3.png
swin_base,1,328,NaN,elephant,boat,NaN,boat1-oven1.png
swin_base,1,329,NaN,elephant,boat,NaN,boat1-truck3.png
swin_base,1,330,NaN,clock,boat,NaN,boat10-bear3.png
swin_base,1,331,NaN,dog,boat,NaN,boat10-boat3.png
swin_base,1,332,NaN,dog,boat,NaN,boat10-cat1.png
swin_base,1,333,NaN,elephant,boat,NaN,boat10-oven1.png
swin_base,1,334,NaN,dog,boat,NaN,boat10-truck1.png
swin_base,1,335,NaN,elephant,boat,NaN,boat2-airplane1.png
swin_base,1,336,NaN,chair,boat,NaN,boat2-bear3.png
swin_base,1,337,NaN,bear,boat,NaN,boat2-bird1.png
swin_base,1,338,NaN,elephant,boat,NaN,boat2-bottle2.png
swin_base,1,339,NaN,elephant,boat,NaN,boat2-keyboard1.png
swin_base,1,340,NaN,elephant,boat,NaN,boat2-oven3.png
swin_base,1,341,NaN,elephant,boat,NaN,boat3-airplane2.png
swin_base,1,342,NaN,chair,boat,NaN,boat3-bicycle2.png
swin_base,1,343,NaN,knife,boat,NaN,boat3-car3.png
swin_base,1,344,NaN,dog,boat,NaN,boat3-cat3.png
swin_base,1,345,NaN,elephant,boat,NaN,boat3-chair3.png
swin_base,1,346,NaN,clock,boat,NaN,boat3-clock3.png
swin_base,1,347,NaN,dog,boat,NaN,boat3-dog3.png
swin_base,1,348,NaN,dog,boat,NaN,boat3-keyboard2.png
swin_base,1,349,NaN,keyboard,boat,NaN,boat4-bicycle3.png
swin_base,1,350,NaN,knife,boat,NaN,boat4-bird1.png
swin_base,1,351,NaN,elephant,boat,NaN,boat4-boat3.png
swin_base,1,352,NaN,elephant,boat,NaN,boat4-bottle2.png
swin_base,1,353,NaN,elephant,boat,NaN,boat4-car3.png
swin_base,1,354,NaN,elephant,boat,NaN,boat4-chair2.png
swin_base,1,355,NaN,keyboard,boat,NaN,boat4-dog2.png
swin_base,1,356,NaN,dog,boat,NaN,boat4-elephant2.png
swin_base,1,357,NaN,elephant,boat,NaN,boat4-knife2.png
swin_base,1,358,NaN,keyboard,boat,NaN,boat5-airplane1.png
swin_base,1,359,NaN,keyboard,boat,NaN,boat5-bicycle3.png
swin_base,1,360,NaN,elephant,boat,NaN,boat5-boat3.png
swin_base,1,361,NaN,chair,boat,NaN,boat5-car3.png
swin_base,1,362,NaN,knife,boat,NaN,boat5-clock3.png
swin_base,1,363,NaN,knife,boat,NaN,boat5-knife2.png
swin_base,1,364,NaN,elephant,boat,NaN,boat6-airplane2.png
swin_base,1,365,NaN,dog,boat,NaN,boat6-bear1.png
swin_base,1,366,NaN,chair,boat,NaN,boat6-bicycle2.png
swin_base,1,367,NaN,elephant,boat,NaN,boat6-bottle2.png
swin_base,1,368,NaN,elephant,boat,NaN,boat6-car1.png
swin_base,1,369,NaN,dog,boat,NaN,boat6-cat1.png
swin_base,1,370,NaN,elephant,boat,NaN,boat6-clock2.png
swin_base,1,371,NaN,keyboard,boat,NaN,boat6-dog1.png
swin_base,1,372,NaN,dog,boat,NaN,boat6-elephant2.png
swin_base,1,373,NaN,bird,boat,NaN,boat6-knife2.png
swin_base,1,374,NaN,elephant,boat,NaN,boat6-truck3.png
swin_base,1,375,NaN,elephant,boat,NaN,boat7-boat2.png
swin_base,1,376,NaN,keyboard,boat,NaN,boat7-bottle1.png
swin_base,1,377,NaN,dog,boat,NaN,boat7-cat3.png
swin_base,1,378,NaN,elephant,boat,NaN,boat7-chair1.png
swin_base,1,379,NaN,dog,boat,NaN,boat7-clock3.png
swin_base,1,380,NaN,dog,boat,NaN,boat7-elephant3.png
swin_base,1,381,NaN,elephant,boat,NaN,boat7-keyboard3.png
swin_base,1,382,NaN,elephant,boat,NaN,boat7-oven3.png
swin_base,1,383,NaN,knife,boat,NaN,boat7-truck2.png
swin_base,1,384,NaN,bear,boat,NaN,boat8-bird2.png
swin_base,1,385,NaN,keyboard,boat,NaN,boat8-bottle1.png
swin_base,1,386,NaN,dog,boat,NaN,boat8-dog3.png
swin_base,1,387,NaN,dog,boat,NaN,boat8-elephant1.png
swin_base,1,388,NaN,elephant,boat,NaN,boat8-knife1.png
swin_base,1,389,NaN,knife,boat,NaN,boat8-oven1.png
swin_base,1,390,NaN,bottle,boat,NaN,boat8-truck2.png
swin_base,1,391,NaN,elephant,boat,NaN,boat9-airplane2.png
swin_base,1,392,NaN,keyboard,boat,NaN,boat9-bear3.png
swin_base,1,393,NaN,elephant,boat,NaN,boat9-bird1.png
swin_base,1,394,NaN,elephant,boat,NaN,boat9-boat3.png
swin_base,1,395,NaN,dog,boat,NaN,boat9-cat3.png
swin_base,1,396,NaN,elephant,boat,NaN,boat9-chair2.png
swin_base,1,397,NaN,knife,boat,NaN,boat9-clock1.png
swin_base,1,398,NaN,keyboard,boat,NaN,boat9-dog2.png
swin_base,1,399,NaN,keyboard,boat,NaN,boat9-keyboard2.png
swin_base,1,400,NaN,knife,boat,NaN,boat9-knife2.png
swin_base,1,401,NaN,dog,bottle,NaN,bottle1-bear1.png
swin_base,1,402,NaN,car,bottle,NaN,bottle1-bird3.png
swin_base,1,403,NaN,elephant,bottle,NaN,bottle1-car1.png
swin_base,1,404,NaN,clock,bottle,NaN,bottle1-cat3.png
swin_base,1,405,NaN,elephant,bottle,NaN,bottle1-chair2.png
swin_base,1,406,NaN,elephant,bottle,NaN,bottle1-clock1.png
swin_base,1,407,NaN,dog,bottle,NaN,bottle1-dog2.png
swin_base,1,408,NaN,dog,bottle,NaN,bottle1-keyboard3.png
swin_base,1,409,NaN,dog,bottle,NaN,bottle10-bear2.png
swin_base,1,410,NaN,elephant,bottle,NaN,bottle10-boat3.png
swin_base,1,411,NaN,clock,bottle,NaN,bottle10-car1.png
swin_base,1,412,NaN,clock,bottle,NaN,bottle10-clock2.png
swin_base,1,413,NaN,keyboard,bottle,NaN,bottle10-dog1.png
swin_base,1,414,NaN,elephant,bottle,NaN,bottle10-truck3.png
swin_base,1,415,NaN,elephant,bottle,NaN,bottle2-bottle3.png
swin_base,1,416,NaN,elephant,bottle,NaN,bottle2-car2.png
swin_base,1,417,NaN,elephant,bottle,NaN,bottle2-chair3.png
swin_base,1,418,NaN,elephant,bottle,NaN,bottle2-clock1.png
swin_base,1,419,NaN,dog,bottle,NaN,bottle2-elephant1.png
swin_base,1,420,NaN,bird,bottle,NaN,bottle2-knife3.png
swin_base,1,421,NaN,elephant,bottle,NaN,bottle3-airplane2.png
swin_base,1,422,NaN,dog,bottle,NaN,bottle3-bear2.png
swin_base,1,423,NaN,elephant,bottle,NaN,bottle3-bicycle3.png
swin_base,1,424,NaN,bear,bottle,NaN,bottle3-bird1.png
swin_base,1,425,NaN,elephant,bottle,NaN,bottle3-boat3.png
swin_base,1,426,NaN,clock,bottle,NaN,bottle3-bottle3.png
swin_base,1,427,NaN,dog,bottle,NaN,bottle3-cat3.png
swin_base,1,428,NaN,elephant,bottle,NaN,bottle3-chair3.png
swin_base,1,429,NaN,bird,bottle,NaN,bottle3-knife3.png
swin_base,1,430,NaN,keyboard,bottle,NaN,bottle4-airplane1.png
swin_base,1,431,NaN,elephant,bottle,NaN,bottle4-bicycle1.png
swin_base,1,432,NaN,elephant,bottle,NaN,bottle4-car3.png
swin_base,1,433,NaN,bird,bottle,NaN,bottle4-dog2.png
swin_base,1,434,NaN,elephant,bottle,NaN,bottle4-oven2.png
swin_base,1,435,NaN,clock,bottle,NaN,bottle4-truck1.png
swin_base,1,436,NaN,bird,bottle,NaN,bottle5-airplane1.png
swin_base,1,437,NaN,elephant,bottle,NaN,bottle5-bird3.png
swin_base,1,438,NaN,elephant,bottle,NaN,bottle5-boat1.png
swin_base,1,439,NaN,keyboard,bottle,NaN,bottle5-cat1.png
swin_base,1,440,NaN,elephant,bottle,NaN,bottle5-chair1.png
swin_base,1,441,NaN,elephant,bottle,NaN,bottle5-clock3.png
swin_base,1,442,NaN,dog,bottle,NaN,bottle5-elephant1.png
swin_base,1,443,NaN,bird,bottle,NaN,bottle5-keyboard2.png
swin_base,1,444,NaN,elephant,bottle,NaN,bottle5-knife1.png
swin_base,1,445,NaN,elephant,bottle,NaN,bottle5-oven2.png
swin_base,1,446,NaN,bear,bottle,NaN,bottle5-truck1.png
swin_base,1,447,NaN,bear,bottle,NaN,bottle6-airplane1.png
swin_base,1,448,NaN,dog,bottle,NaN,bottle6-bear2.png
swin_base,1,449,NaN,elephant,bottle,NaN,bottle6-bicycle3.png
swin_base,1,450,NaN,bear,bottle,NaN,bottle6-bird1.png
swin_base,1,451,NaN,elephant,bottle,NaN,bottle6-boat3.png
swin_base,1,452,NaN,knife,bottle,NaN,bottle6-bottle3.png
swin_base,1,453,NaN,bird,bottle,NaN,bottle6-chair2.png
swin_base,1,454,NaN,dog,bottle,NaN,bottle6-dog3.png
swin_base,1,455,NaN,elephant,bottle,NaN,bottle6-knife3.png
swin_base,1,456,NaN,bird,bottle,NaN,bottle6-oven3.png
swin_base,1,457,NaN,truck,bottle,NaN,bottle7-airplane3.png
swin_base,1,458,NaN,dog,bottle,NaN,bottle7-bear1.png
swin_base,1,459,NaN,elephant,bottle,NaN,bottle7-boat3.png
swin_base,1,460,NaN,keyboard,bottle,NaN,bottle7-cat2.png
swin_base,1,461,NaN,elephant,bottle,NaN,bottle7-clock1.png
swin_base,1,462,NaN,dog,bottle,NaN,bottle7-elephant2.png
swin_base,1,463,NaN,bird,bottle,NaN,bottle7-keyboard2.png
swin_base,1,464,NaN,elephant,bottle,NaN,bottle7-oven2.png
swin_base,1,465,NaN,knife,bottle,NaN,bottle7-truck2.png
swin_base,1,466,NaN,chair,bottle,NaN,bottle8-bicycle1.png
swin_base,1,467,NaN,bear,bottle,NaN,bottle8-bird1.png
swin_base,1,468,NaN,clock,bottle,NaN,bottle8-bottle3.png
swin_base,1,469,NaN,car,bottle,NaN,bottle8-dog2.png
swin_base,1,470,NaN,dog,bottle,NaN,bottle8-elephant3.png
swin_base,1,471,NaN,knife,bottle,NaN,bottle8-keyboard3.png
swin_base,1,472,NaN,elephant,bottle,NaN,bottle8-knife1.png
swin_base,1,473,NaN,dog,bottle,NaN,bottle9-bicycle1.png
swin_base,1,474,NaN,elephant,bottle,NaN,bottle9-bottle1.png
swin_base,1,475,NaN,chair,bottle,NaN,bottle9-car3.png
swin_base,1,476,NaN,keyboard,bottle,NaN,bottle9-cat2.png
swin_base,1,477,NaN,bear,bottle,NaN,bottle9-elephant2.png
swin_base,1,478,NaN,bottle,bottle,NaN,bottle9-keyboard1.png
swin_base,1,479,NaN,elephant,bottle,NaN,bottle9-oven2.png
swin_base,1,480,NaN,clock,bottle,NaN,bottle9-truck1.png
swin_base,1,481,NaN,cat,car,NaN,car1-airplane1.png
swin_base,1,482,NaN,dog,car,NaN,car1-car2.png
swin_base,1,483,NaN,elephant,car,NaN,car1-chair3.png
swin_base,1,484,NaN,keyboard,car,NaN,car1-clock2.png
swin_base,1,485,NaN,bear,car,NaN,car1-dog2.png
swin_base,1,486,NaN,bear,car,NaN,car1-keyboard2.png
swin_base,1,487,NaN,bird,car,NaN,car1-oven3.png
swin_base,1,488,NaN,keyboard,car,NaN,car10-bicycle2.png
swin_base,1,489,NaN,knife,car,NaN,car10-bottle3.png
swin_base,1,490,NaN,elephant,car,NaN,car10-car1.png
swin_base,1,491,NaN,elephant,car,NaN,car10-chair1.png
swin_base,1,492,NaN,dog,car,NaN,car10-dog1.png
swin_base,1,493,NaN,dog,car,NaN,car10-elephant2.png
swin_base,1,494,NaN,bottle,car,NaN,car10-keyboard2.png
swin_base,1,495,NaN,bear,car,NaN,car2-bird3.png
swin_base,1,496,NaN,boat,car,NaN,car2-car3.png
swin_base,1,497,NaN,keyboard,car,NaN,car2-cat3.png
swin_base,1,498,NaN,elephant,car,NaN,car2-chair1.png
swin_base,1,499,NaN,elephant,car,NaN,car2-knife3.png
swin_base,1,500,NaN,elephant,car,NaN,car3-airplane3.png
swin_base,1,501,NaN,keyboard,car,NaN,car3-bird2.png
swin_base,1,502,NaN,bear,car,NaN,car3-boat1.png
swin_base,1,503,NaN,knife,car,NaN,car3-bottle3.png
swin_base,1,504,NaN,dog,car,NaN,car3-dog2.png
swin_base,1,505,NaN,dog,car,NaN,car3-elephant3.png
swin_base,1,506,NaN,bird,car,NaN,car3-oven3.png
swin_base,1,507,NaN,clock,car,NaN,car3-truck1.png
swin_base,1,508,NaN,dog,car,NaN,car4-bear3.png
swin_base,1,509,NaN,keyboard,car,NaN,car4-bicycle3.png
swin_base,1,510,NaN,elephant,car,NaN,car4-bird1.png
swin_base,1,511,NaN,elephant,car,NaN,car4-boat1.png
swin_base,1,512,NaN,clock,car,NaN,car4-bottle1.png
swin_base,1,513,NaN,bottle,car,NaN,car4-car2.png
swin_base,1,514,NaN,dog,car,NaN,car4-cat3.png
swin_base,1,515,NaN,elephant,car,NaN,car4-clock1.png
swin_base,1,516,NaN,knife,car,NaN,car4-elephant3.png
swin_base,1,517,NaN,elephant,car,NaN,car4-oven2.png
swin_base,1,518,NaN,elephant,car,NaN,car5-airplane3.png
swin_base,1,519,NaN,clock,car,NaN,car5-bear3.png
swin_base,1,520,NaN,keyboard,car,NaN,car5-bottle1.png
swin_base,1,521,NaN,dog,car,NaN,car5-cat1.png
swin_base,1,522,NaN,dog,car,NaN,car5-keyboard3.png
swin_base,1,523,NaN,elephant,car,NaN,car5-knife2.png
swin_base,1,524,NaN,elephant,car,NaN,car5-oven2.png
swin_base,1,525,NaN,elephant,car,NaN,car5-truck3.png
swin_base,1,526,NaN,dog,car,NaN,car6-bear1.png
swin_base,1,527,NaN,oven,car,NaN,car6-bicycle3.png
swin_base,1,528,NaN,elephant,car,NaN,car6-boat1.png
swin_base,1,529,NaN,bird,car,NaN,car6-bottle1.png
swin_base,1,530,NaN,elephant,car,NaN,car6-chair3.png
swin_base,1,531,NaN,dog,car,NaN,car6-elephant3.png
swin_base,1,532,NaN,elephant,car,NaN,car6-knife1.png
swin_base,1,533,NaN,keyboard,car,NaN,car6-truck3.png
swin_base,1,534,NaN,elephant,car,NaN,car7-airplane2.png
swin_base,1,535,NaN,dog,car,NaN,car7-bear1.png
swin_base,1,536,NaN,bird,car,NaN,car7-bird3.png
swin_base,1,537,NaN,elephant,car,NaN,car7-boat3.png
swin_base,1,538,NaN,elephant,car,NaN,car7-car1.png
swin_base,1,539,NaN,elephant,car,NaN,car7-clock1.png
swin_base,1,540,NaN,dog,car,NaN,car7-dog3.png
swin_base,1,541,NaN,dog,car,NaN,car7-elephant3.png
swin_base,1,542,NaN,elephant,car,NaN,car7-keyboard3.png
swin_base,1,543,NaN,elephant,car,NaN,car7-oven2.png
swin_base,1,544,NaN,elephant,car,NaN,car8-airplane3.png
swin_base,1,545,NaN,dog,car,NaN,car8-bear1.png
swin_base,1,546,NaN,keyboard,car,NaN,car8-bicycle2.png
swin_base,1,547,NaN,bottle,car,NaN,car8-boat3.png
swin_base,1,548,NaN,dog,car,NaN,car8-cat1.png
swin_base,1,549,NaN,elephant,car,NaN,car8-chair1.png
swin_base,1,550,NaN,bottle,car,NaN,car8-clock2.png
swin_base,1,551,NaN,keyboard,car,NaN,car8-dog1.png
swin_base,1,552,NaN,bottle,car,NaN,car8-knife2.png
swin_base,1,553,NaN,elephant,car,NaN,car8-truck3.png
swin_base,1,554,NaN,bottle,car,NaN,car9-bicycle2.png
swin_base,1,555,NaN,dog,car,NaN,car9-bird1.png
swin_base,1,556,NaN,dog,car,NaN,car9-cat1.png
swin_base,1,557,NaN,bear,car,NaN,car9-clock2.png
swin_base,1,558,NaN,keyboard,car,NaN,car9-keyboard2.png
swin_base,1,559,NaN,elephant,car,NaN,car9-knife1.png
swin_base,1,560,NaN,elephant,car,NaN,car9-truck3.png
swin_base,1,561,NaN,knife,cat,NaN,cat1-airplane1.png
swin_base,1,562,NaN,dog,cat,NaN,cat1-bird1.png
swin_base,1,563,NaN,elephant,cat,NaN,cat1-boat1.png
swin_base,1,564,NaN,elephant,cat,NaN,cat1-car2.png
swin_base,1,565,NaN,dog,cat,NaN,cat1-cat3.png
swin_base,1,566,NaN,bird,cat,NaN,cat1-chair2.png
swin_base,1,567,NaN,dog,cat,NaN,cat1-dog1.png
swin_base,1,568,NaN,dog,cat,NaN,cat1-keyboard3.png
swin_base,1,569,NaN,knife,cat,NaN,cat1-oven1.png
swin_base,1,570,NaN,elephant,cat,NaN,cat10-airplane3.png
swin_base,1,571,NaN,dog,cat,NaN,cat10-bear1.png
swin_base,1,572,NaN,dog,cat,NaN,cat10-bicycle1.png
swin_base,1,573,NaN,dog,cat,NaN,cat10-bird2.png
swin_base,1,574,NaN,elephant,cat,NaN,cat10-bottle1.png
swin_base,1,575,NaN,elephant,cat,NaN,cat10-clock1.png
swin_base,1,576,NaN,dog,cat,NaN,cat10-elephant3.png
swin_base,1,577,NaN,elephant,cat,NaN,cat10-keyboard1.png
swin_base,1,578,NaN,elephant,cat,NaN,cat10-oven2.png
swin_base,1,579,NaN,elephant,cat,NaN,cat2-boat2.png
swin_base,1,580,NaN,elephant,cat,NaN,cat2-bottle3.png
swin_base,1,581,NaN,elephant,cat,NaN,cat2-car3.png
swin_base,1,582,NaN,dog,cat,NaN,cat2-cat1.png
swin_base,1,583,NaN,dog,cat,NaN,cat2-elephant1.png
swin_base,1,584,NaN,elephant,cat,NaN,cat2-knife3.png
swin_base,1,585,NaN,elephant,cat,NaN,cat2-truck3.png
swin_base,1,586,NaN,dog,cat,NaN,cat3-bear2.png
swin_base,1,587,NaN,chair,cat,NaN,cat3-bicycle1.png
swin_base,1,588,NaN,dog,cat,NaN,cat3-cat1.png
swin_base,1,589,NaN,dog,cat,NaN,cat3-elephant2.png
swin_base,1,590,NaN,elephant,cat,NaN,cat3-oven2.png
swin_base,1,591,NaN,elephant,cat,NaN,cat3-truck3.png
swin_base,1,592,NaN,dog,cat,NaN,cat4-airplane1.png
swin_base,1,593,NaN,truck,cat,NaN,cat4-bird2.png
swin_base,1,594,NaN,dog,cat,NaN,cat4-car2.png
swin_base,1,595,NaN,dog,cat,NaN,cat4-cat3.png
swin_base,1,596,NaN,elephant,cat,NaN,cat4-chair2.png
swin_base,1,597,NaN,bear,cat,NaN,cat4-clock2.png
swin_base,1,598,NaN,dog,cat,NaN,cat4-dog3.png
swin_base,1,599,NaN,keyboard,cat,NaN,cat4-keyboard2.png
swin_base,1,600,NaN,elephant,cat,NaN,cat4-knife1.png
swin_base,1,601,NaN,elephant,cat,NaN,cat4-oven1.png
swin_base,1,602,NaN,elephant,cat,NaN,cat4-truck3.png
swin_base,1,603,NaN,knife,cat,NaN,cat5-airplane2.png
swin_base,1,604,NaN,dog,cat,NaN,cat5-bear2.png
swin_base,1,605,NaN,keyboard,cat,NaN,cat5-bicycle3.png
swin_base,1,606,NaN,elephant,cat,NaN,cat5-boat1.png
swin_base,1,607,NaN,elephant,cat,NaN,cat5-bottle1.png
swin_base,1,608,NaN,elephant,cat,NaN,cat5-car2.png
swin_base,1,609,NaN,elephant,cat,NaN,cat5-chair3.png
swin_base,1,610,NaN,dog,cat,NaN,cat5-dog3.png
swin_base,1,611,NaN,dog,cat,NaN,cat5-elephant2.png
swin_base,1,612,NaN,dog,cat,NaN,cat5-keyboard3.png
swin_base,1,613,NaN,elephant,cat,NaN,cat5-knife2.png
swin_base,1,614,NaN,dog,cat,NaN,cat6-bear1.png
swin_base,1,615,NaN,elephant,cat,NaN,cat6-chair3.png
swin_base,1,616,NaN,dog,cat,NaN,cat6-clock3.png
swin_base,1,617,NaN,dog,cat,NaN,cat6-keyboard3.png
swin_base,1,618,NaN,truck,cat,NaN,cat6-oven1.png
swin_base,1,619,NaN,elephant,cat,NaN,cat7-airplane2.png
swin_base,1,620,NaN,elephant,cat,NaN,cat7-boat3.png
swin_base,1,621,NaN,keyboard,cat,NaN,cat7-bottle1.png
swin_base,1,622,NaN,dog,cat,NaN,cat7-clock3.png
swin_base,1,623,NaN,dog,cat,NaN,cat7-dog3.png
swin_base,1,624,NaN,dog,cat,NaN,cat7-elephant1.png
swin_base,1,625,NaN,elephant,cat,NaN,cat7-knife2.png
swin_base,1,626,NaN,elephant,cat,NaN,cat7-truck2.png
swin_base,1,627,NaN,dog,cat,NaN,cat8-bear1.png
swin_base,1,628,NaN,dog,cat,NaN,cat8-bicycle3.png
swin_base,1,629,NaN,dog,cat,NaN,cat8-bird2.png
swin_base,1,630,NaN,elephant,cat,NaN,cat8-car2.png
swin_base,1,631,NaN,dog,cat,NaN,cat9-bicycle1.png
swin_base,1,632,NaN,dog,cat,NaN,cat9-bird3.png
swin_base,1,633,NaN,elephant,cat,NaN,cat9-boat2.png
swin_base,1,634,NaN,elephant,cat,NaN,cat9-bottle2.png
swin_base,1,635,NaN,dog,cat,NaN,cat9-cat3.png
swin_base,1,636,NaN,elephant,cat,NaN,cat9-chair2.png
swin_base,1,637,NaN,elephant,cat,NaN,cat9-clock2.png
swin_base,1,638,NaN,dog,cat,NaN,cat9-dog2.png
swin_base,1,639,NaN,elephant,cat,NaN,cat9-knife2.png
swin_base,1,640,NaN,elephant,cat,NaN,cat9-truck1.png
swin_base,1,641,NaN,bird,chair,NaN,chair1-airplane2.png
swin_base,1,642,NaN,dog,chair,NaN,chair1-bear1.png
swin_base,1,643,NaN,clock,chair,NaN,chair1-cat3.png
swin_base,1,644,NaN,elephant,chair,NaN,chair1-chair1.png
swin_base,1,645,NaN,elephant,chair,NaN,chair1-clock2.png
swin_base,1,646,NaN,clock,chair,NaN,chair1-dog1.png
swin_base,1,647,NaN,bear,chair,NaN,chair1-elephant1.png
swin_base,1,648,NaN,bird,chair,NaN,chair1-oven3.png
swin_base,1,649,NaN,elephant,chair,NaN,chair1-truck3.png
swin_base,1,650,NaN,bird,chair,NaN,chair10-airplane2.png
swin_base,1,651,NaN,chair,chair,NaN,chair10-bicycle1.png
swin_base,1,652,NaN,bird,chair,NaN,chair10-bird3.png
swin_base,1,653,NaN,clock,chair,NaN,chair10-bottle3.png
swin_base,1,654,NaN,elephant,chair,NaN,chair10-car2.png
swin_base,1,655,NaN,dog,chair,NaN,chair10-cat1.png
swin_base,1,656,NaN,elephant,chair,NaN,chair10-clock1.png
swin_base,1,657,NaN,clock,chair,NaN,chair10-dog1.png
swin_base,1,658,NaN,truck,chair,NaN,chair10-oven1.png
swin_base,1,659,NaN,dog,chair,NaN,chair2-bear2.png
swin_base,1,660,NaN,elephant,chair,NaN,chair2-boat1.png
swin_base,1,661,NaN,chair,chair,NaN,chair2-keyboard2.png
swin_base,1,662,NaN,elephant,chair,NaN,chair2-knife1.png
swin_base,1,663,NaN,knife,chair,NaN,chair3-airplane2.png
swin_base,1,664,NaN,keyboard,chair,NaN,chair3-bicycle3.png
swin_base,1,665,NaN,clock,chair,NaN,chair3-bottle3.png
swin_base,1,666,NaN,elephant,chair,NaN,chair3-car3.png
swin_base,1,667,NaN,dog,chair,NaN,chair3-dog2.png
swin_base,1,668,NaN,elephant,chair,NaN,chair3-knife1.png
swin_base,1,669,NaN,dog,chair,NaN,chair4-bear2.png
swin_base,1,670,NaN,keyboard,chair,NaN,chair4-cat2.png
swin_base,1,671,NaN,elephant,chair,NaN,chair4-chair3.png
swin_base,1,672,NaN,elephant,chair,NaN,chair4-keyboard2.png
swin_base,1,673,NaN,elephant,chair,NaN,chair4-oven2.png
swin_base,1,674,NaN,elephant,chair,NaN,chair4-truck2.png
swin_base,1,675,NaN,elephant,chair,NaN,chair5-bicycle1.png
swin_base,1,676,NaN,bear,chair,NaN,chair5-bird1.png
swin_base,1,677,NaN,bird,chair,NaN,chair5-boat3.png
swin_base,1,678,NaN,clock,chair,NaN,chair5-bottle3.png
swin_base,1,679,NaN,elephant,chair,NaN,chair5-car1.png
swin_base,1,680,NaN,dog,chair,NaN,chair5-cat3.png
swin_base,1,681,NaN,elephant,chair,NaN,chair5-clock2.png
swin_base,1,682,NaN,elephant,chair,NaN,chair5-keyboard2.png
swin_base,1,683,NaN,chair,chair,NaN,chair5-knife3.png
swin_base,1,684,NaN,elephant,chair,NaN,chair5-oven2.png
swin_base,1,685,NaN,elephant,chair,NaN,chair5-truck3.png
swin_base,1,686,NaN,bottle,chair,NaN,chair6-bird2.png
swin_base,1,687,NaN,keyboard,chair,NaN,chair6-dog1.png
swin_base,1,688,NaN,dog,chair,NaN,chair6-elephant2.png
swin_base,1,689,NaN,keyboard,chair,NaN,chair6-truck2.png
swin_base,1,690,NaN,keyboard,chair,NaN,chair7-airplane1.png
swin_base,1,691,NaN,knife,chair,NaN,chair7-bird1.png
swin_base,1,692,NaN,elephant,chair,NaN,chair7-boat3.png
swin_base,1,693,NaN,elephant,chair,NaN,chair7-bottle1.png
swin_base,1,694,NaN,knife,chair,NaN,chair7-car2.png
swin_base,1,695,NaN,keyboard,chair,NaN,chair7-cat1.png
swin_base,1,696,NaN,elephant,chair,NaN,chair7-chair1.png
swin_base,1,697,NaN,elephant,chair,NaN,chair7-clock3.png
swin_base,1,698,NaN,dog,chair,NaN,chair7-elephant1.png
swin_base,1,699,NaN,knife,chair,NaN,chair7-knife2.png
swin_base,1,700,NaN,elephant,chair,NaN,chair7-truck3.png
swin_base,1,701,NaN,chair,chair,NaN,chair8-airplane1.png
swin_base,1,702,NaN,keyboard,chair,NaN,chair8-bear1.png
swin_base,1,703,NaN,dog,chair,NaN,chair8-bicycle3.png
swin_base,1,704,NaN,elephant,chair,NaN,chair8-boat1.png
swin_base,1,705,NaN,elephant,chair,NaN,chair8-car1.png
swin_base,1,706,NaN,elephant,chair,NaN,chair8-chair3.png
swin_base,1,707,NaN,elephant,chair,NaN,chair8-clock3.png
swin_base,1,708,NaN,dog,chair,NaN,chair8-elephant1.png
swin_base,1,709,NaN,elephant,chair,NaN,chair8-keyboard3.png
swin_base,1,710,NaN,elephant,chair,NaN,chair8-knife2.png
swin_base,1,711,NaN,elephant,chair,NaN,chair8-oven1.png
swin_base,1,712,NaN,dog,chair,NaN,chair9-bear1.png
swin_base,1,713,NaN,chair,chair,NaN,chair9-bicycle3.png
swin_base,1,714,NaN,chair,chair,NaN,chair9-bird3.png
swin_base,1,715,NaN,chair,chair,NaN,chair9-boat2.png
swin_base,1,716,NaN,clock,chair,NaN,chair9-bottle3.png
swin_base,1,717,NaN,elephant,chair,NaN,chair9-chair3.png
swin_base,1,718,NaN,dog,chair,NaN,chair9-dog2.png
swin_base,1,719,NaN,dog,chair,NaN,chair9-elephant1.png
swin_base,1,720,NaN,elephant,chair,NaN,chair9-keyboard2.png
swin_base,1,721,NaN,dog,clock,NaN,clock1-bear1.png
swin_base,1,722,NaN,bear,clock,NaN,clock1-boat3.png
swin_base,1,723,NaN,elephant,clock,NaN,clock1-car1.png
swin_base,1,724,NaN,bear,clock,NaN,clock1-clock2.png
swin_base,1,725,NaN,keyboard,clock,NaN,clock1-dog2.png
swin_base,1,726,NaN,dog,clock,NaN,clock1-elephant2.png
swin_base,1,727,NaN,elephant,clock,NaN,clock1-truck3.png
swin_base,1,728,NaN,bird,clock,NaN,clock10-airplane1.png
swin_base,1,729,NaN,elephant,clock,NaN,clock10-bird3.png
swin_base,1,730,NaN,dog,clock,NaN,clock10-boat2.png
swin_base,1,731,NaN,keyboard,clock,NaN,clock10-bottle1.png
swin_base,1,732,NaN,dog,clock,NaN,clock10-cat1.png
swin_base,1,733,NaN,elephant,clock,NaN,clock10-clock3.png
swin_base,1,734,NaN,dog,clock,NaN,clock10-dog3.png
swin_base,1,735,NaN,elephant,clock,NaN,clock10-knife3.png
swin_base,1,736,NaN,elephant,clock,NaN,clock10-oven2.png
swin_base,1,737,NaN,elephant,clock,NaN,clock10-truck2.png
swin_base,1,738,NaN,bottle,clock,NaN,clock2-bear2.png
swin_base,1,739,NaN,keyboard,clock,NaN,clock2-bicycle1.png
swin_base,1,740,NaN,elephant,clock,NaN,clock2-bottle3.png
swin_base,1,741,NaN,elephant,clock,NaN,clock2-clock3.png
swin_base,1,742,NaN,keyboard,clock,NaN,clock2-dog1.png
swin_base,1,743,NaN,bear,clock,NaN,clock2-elephant2.png
swin_base,1,744,NaN,elephant,clock,NaN,clock2-knife1.png
swin_base,1,745,NaN,keyboard,clock,NaN,clock3-bear3.png
swin_base,1,746,NaN,bird,clock,NaN,clock3-bicycle2.png
swin_base,1,747,NaN,elephant,clock,NaN,clock3-bird1.png
swin_base,1,748,NaN,clock,clock,NaN,clock3-car2.png
swin_base,1,749,NaN,keyboard,clock,NaN,clock3-cat1.png
swin_base,1,750,NaN,keyboard,clock,NaN,clock3-dog2.png
swin_base,1,751,NaN,elephant,clock,NaN,clock3-elephant3.png
swin_base,1,752,NaN,chair,clock,NaN,clock3-keyboard3.png
swin_base,1,753,NaN,keyboard,clock,NaN,clock4-airplane1.png
swin_base,1,754,NaN,elephant,clock,NaN,clock4-bird3.png
swin_base,1,755,NaN,elephant,clock,NaN,clock4-boat3.png
swin_base,1,756,NaN,dog,clock,NaN,clock4-bottle3.png
swin_base,1,757,NaN,elephant,clock,NaN,clock4-car2.png
swin_base,1,758,NaN,elephant,clock,NaN,clock4-chair1.png
swin_base,1,759,NaN,bird,clock,NaN,clock4-elephant2.png
swin_base,1,760,NaN,elephant,clock,NaN,clock4-knife1.png
swin_base,1,761,NaN,elephant,clock,NaN,clock4-oven1.png
swin_base,1,762,NaN,truck,clock,NaN,clock5-airplane1.png
swin_base,1,763,NaN,keyboard,clock,NaN,clock5-bicycle1.png
swin_base,1,764,NaN,elephant,clock,NaN,clock5-chair3.png
swin_base,1,765,NaN,chair,clock,NaN,clock5-clock2.png
swin_base,1,766,NaN,bear,clock,NaN,clock5-elephant2.png
swin_base,1,767,NaN,bottle,clock,NaN,clock5-keyboard1.png
swin_base,1,768,NaN,dog,clock,NaN,clock5-oven1.png
swin_base,1,769,NaN,dog,clock,NaN,clock6-bicycle1.png
swin_base,1,770,NaN,car,clock,NaN,clock6-bird3.png
swin_base,1,771,NaN,bird,clock,NaN,clock6-bottle1.png
swin_base,1,772,NaN,clock,clock,NaN,clock6-car2.png
swin_base,1,773,NaN,elephant,clock,NaN,clock6-chair3.png
swin_base,1,774,NaN,elephant,clock,NaN,clock6-clock2.png
swin_base,1,775,NaN,elephant,clock,NaN,clock6-knife2.png
swin_base,1,776,NaN,car,clock,NaN,clock6-oven1.png
swin_base,1,777,NaN,elephant,clock,NaN,clock6-truck3.png
swin_base,1,778,NaN,bottle,clock,NaN,clock7-bear2.png
swin_base,1,779,NaN,bottle,clock,NaN,clock7-bicycle1.png
swin_base,1,780,NaN,elephant,clock,NaN,clock7-boat3.png
swin_base,1,781,NaN,elephant,clock,NaN,clock7-bottle2.png
swin_base,1,782,NaN,keyboard,clock,NaN,clock7-car1.png
swin_base,1,783,NaN,keyboard,clock,NaN,clock7-cat2.png
swin_base,1,784,NaN,bottle,clock,NaN,clock7-dog2.png
swin_base,1,785,NaN,bottle,clock,NaN,clock7-keyboard2.png
swin_base,1,786,NaN,elephant,clock,NaN,clock7-truck3.png
swin_base,1,787,NaN,bird,clock,NaN,clock8-airplane2.png
swin_base,1,788,NaN,elephant,clock,NaN,clock8-bear2.png
swin_base,1,789,NaN,elephant,clock,NaN,clock8-boat1.png
swin_base,1,790,NaN,dog,clock,NaN,clock8-cat1.png
swin_base,1,791,NaN,bird,clock,NaN,clock8-chair2.png
swin_base,1,792,NaN,elephant,clock,NaN,clock8-keyboard1.png
swin_base,1,793,NaN,elephant,clock,NaN,clock8-knife1.png
swin_base,1,794,NaN,elephant,clock,NaN,clock8-oven3.png
swin_base,1,795,NaN,truck,clock,NaN,clock8-truck2.png
swin_base,1,796,NaN,elephant,clock,NaN,clock9-airplane1.png
swin_base,1,797,NaN,keyboard,clock,NaN,clock9-bird2.png
swin_base,1,798,NaN,dog,clock,NaN,clock9-cat1.png
swin_base,1,799,NaN,elephant,clock,NaN,clock9-chair3.png
swin_base,1,800,NaN,dog,clock,NaN,clock9-keyboard2.png
swin_base,1,801,NaN,elephant,dog,NaN,dog1-airplane3.png
swin_base,1,802,NaN,dog,dog,NaN,dog1-bear1.png
swin_base,1,803,NaN,bear,dog,NaN,dog1-bird1.png
swin_base,1,804,NaN,elephant,dog,NaN,dog1-boat3.png
swin_base,1,805,NaN,elephant,dog,NaN,dog1-car2.png
swin_base,1,806,NaN,dog,dog,NaN,dog1-cat3.png
swin_base,1,807,NaN,elephant,dog,NaN,dog1-chair1.png
swin_base,1,808,NaN,dog,dog,NaN,dog1-dog2.png
swin_base,1,809,NaN,elephant,dog,NaN,dog1-knife3.png
swin_base,1,810,NaN,elephant,dog,NaN,dog10-airplane1.png
swin_base,1,811,NaN,keyboard,dog,NaN,dog10-bicycle1.png
swin_base,1,812,NaN,keyboard,dog,NaN,dog10-bottle1.png
swin_base,1,813,NaN,elephant,dog,NaN,dog10-car3.png
swin_base,1,814,NaN,knife,dog,NaN,dog10-clock1.png
swin_base,1,815,NaN,keyboard,dog,NaN,dog10-dog1.png
swin_base,1,816,NaN,dog,dog,NaN,dog10-elephant1.png
swin_base,1,817,NaN,knife,dog,NaN,dog10-keyboard2.png
swin_base,1,818,NaN,elephant,dog,NaN,dog10-oven2.png
swin_base,1,819,NaN,truck,dog,NaN,dog10-truck2.png
swin_base,1,820,NaN,elephant,dog,NaN,dog2-airplane2.png
swin_base,1,821,NaN,dog,dog,NaN,dog2-bicycle2.png
swin_base,1,822,NaN,elephant,dog,NaN,dog2-bottle2.png
swin_base,1,823,NaN,dog,dog,NaN,dog2-cat1.png
swin_base,1,824,NaN,dog,dog,NaN,dog2-dog3.png
swin_base,1,825,NaN,elephant,dog,NaN,dog2-knife3.png
swin_base,1,826,NaN,dog,dog,NaN,dog3-bear3.png
swin_base,1,827,NaN,dog,dog,NaN,dog3-bird2.png
swin_base,1,828,NaN,elephant,dog,NaN,dog3-boat1.png
swin_base,1,829,NaN,elephant,dog,NaN,dog3-clock1.png
swin_base,1,830,NaN,keyboard,dog,NaN,dog3-dog1.png
swin_base,1,831,NaN,bear,dog,NaN,dog3-elephant2.png
swin_base,1,832,NaN,elephant,dog,NaN,dog3-keyboard1.png
swin_base,1,833,NaN,elephant,dog,NaN,dog3-knife3.png
swin_base,1,834,NaN,keyboard,dog,NaN,dog3-truck2.png
swin_base,1,835,NaN,elephant,dog,NaN,dog4-airplane3.png
swin_base,1,836,NaN,dog,dog,NaN,dog4-bicycle1.png
swin_base,1,837,NaN,truck,dog,NaN,dog4-bird1.png
swin_base,1,838,NaN,elephant,dog,NaN,dog4-bottle2.png
swin_base,1,839,NaN,dog,dog,NaN,dog4-cat3.png
swin_base,1,840,NaN,elephant,dog,NaN,dog4-chair1.png
swin_base,1,841,NaN,elephant,dog,NaN,dog4-clock1.png
swin_base,1,842,NaN,dog,dog,NaN,dog4-elephant2.png
swin_base,1,843,NaN,car,dog,NaN,dog4-keyboard2.png
swin_base,1,844,NaN,oven,dog,NaN,dog4-oven1.png
swin_base,1,845,NaN,knife,dog,NaN,dog4-truck2.png
swin_base,1,846,NaN,dog,dog,NaN,dog5-bear3.png
swin_base,1,847,NaN,elephant,dog,NaN,dog5-boat3.png
swin_base,1,848,NaN,dog,dog,NaN,dog5-car3.png
swin_base,1,849,NaN,dog,dog,NaN,dog5-elephant1.png
swin_base,1,850,NaN,elephant,dog,NaN,dog5-knife2.png
swin_base,1,851,NaN,oven,dog,NaN,dog5-oven1.png
swin_base,1,852,NaN,knife,dog,NaN,dog5-truck2.png
swin_base,1,853,NaN,chair,dog,NaN,dog6-bicycle1.png
swin_base,1,854,NaN,knife,dog,NaN,dog6-bird1.png
swin_base,1,855,NaN,dog,dog,NaN,dog6-cat1.png
swin_base,1,856,NaN,elephant,dog,NaN,dog6-clock1.png
swin_base,1,857,NaN,dog,dog,NaN,dog6-elephant2.png
swin_base,1,858,NaN,truck,dog,NaN,dog6-truck2.png
swin_base,1,859,NaN,dog,dog,NaN,dog7-bird3.png
swin_base,1,860,NaN,knife,dog,NaN,dog7-car2.png
swin_base,1,861,NaN,elephant,dog,NaN,dog7-chair2.png
swin_base,1,862,NaN,elephant,dog,NaN,dog7-keyboard3.png
swin_base,1,863,NaN,bird,dog,NaN,dog7-knife3.png
swin_base,1,864,NaN,elephant,dog,NaN,dog7-oven2.png
swin_base,1,865,NaN,dog,dog,NaN,dog8-bear3.png
swin_base,1,866,NaN,bird,dog,NaN,dog8-boat3.png
swin_base,1,867,NaN,elephant,dog,NaN,dog8-bottle2.png
swin_base,1,868,NaN,elephant,dog,NaN,dog8-chair3.png
swin_base,1,869,NaN,bird,dog,NaN,dog8-clock2.png
swin_base,1,870,NaN,dog,dog,NaN,dog8-dog3.png
swin_base,1,871,NaN,elephant,dog,NaN,dog8-keyboard3.png
swin_base,1,872,NaN,elephant,dog,NaN,dog8-oven3.png
swin_base,1,873,NaN,elephant,dog,NaN,dog9-airplane3.png
swin_base,1,874,NaN,dog,dog,NaN,dog9-bear3.png
swin_base,1,875,NaN,dog,dog,NaN,dog9-bicycle3.png
swin_base,1,876,NaN,elephant,dog,NaN,dog9-boat1.png
swin_base,1,877,NaN,elephant,dog,NaN,dog9-bottle1.png
swin_base,1,878,NaN,elephant,dog,NaN,dog9-car1.png
swin_base,1,879,NaN,dog,dog,NaN,dog9-cat1.png
swin_base,1,880,NaN,elephant,dog,NaN,dog9-chair2.png
swin_base,1,881,NaN,bird,elephant,NaN,elephant1-airplane2.png
swin_base,1,882,NaN,dog,elephant,NaN,elephant1-bear2.png
swin_base,1,883,NaN,dog,elephant,NaN,elephant1-boat2.png
swin_base,1,884,NaN,bird,elephant,NaN,elephant1-bottle1.png
swin_base,1,885,NaN,elephant,elephant,NaN,elephant1-car3.png
swin_base,1,886,NaN,elephant,elephant,NaN,elephant1-chair1.png
swin_base,1,887,NaN,dog,elephant,NaN,elephant1-dog2.png
swin_base,1,888,NaN,elephant,elephant,NaN,elephant1-keyboard3.png
swin_base,1,889,NaN,elephant,elephant,NaN,elephant1-oven2.png
swin_base,1,890,NaN,dog,elephant,NaN,elephant10-bear1.png
swin_base,1,891,NaN,dog,elephant,NaN,elephant10-elephant1.png
swin_base,1,892,NaN,elephant,elephant,NaN,elephant10-keyboard1.png
swin_base,1,893,NaN,elephant,elephant,NaN,elephant10-knife3.png
swin_base,1,894,NaN,elephant,elephant,NaN,elephant2-airplane3.png
swin_base,1,895,NaN,dog,elephant,NaN,elephant2-bear3.png
swin_base,1,896,NaN,dog,elephant,NaN,elephant2-bird1.png
swin_base,1,897,NaN,elephant,elephant,NaN,elephant2-boat1.png
swin_base,1,898,NaN,clock,elephant,NaN,elephant2-bottle3.png
swin_base,1,899,NaN,dog,elephant,NaN,elephant2-cat1.png
swin_base,1,900,NaN,elephant,elephant,NaN,elephant2-clock1.png
swin_base,1,901,NaN,dog,elephant,NaN,elephant2-elephant3.png
swin_base,1,902,NaN,keyboard,elephant,NaN,elephant2-keyboard3.png
swin_base,1,903,NaN,keyboard,elephant,NaN,elephant2-truck2.png
swin_base,1,904,NaN,dog,elephant,NaN,elephant3-cat2.png
swin_base,1,905,NaN,elephant,elephant,NaN,elephant3-chair1.png
swin_base,1,906,NaN,knife,elephant,NaN,elephant3-keyboard2.png
swin_base,1,907,NaN,elephant,elephant,NaN,elephant3-knife1.png
swin_base,1,908,NaN,knife,elephant,NaN,elephant3-oven1.png
swin_base,1,909,NaN,knife,elephant,NaN,elephant3-truck1.png
swin_base,1,910,NaN,elephant,elephant,NaN,elephant4-bicycle2.png
swin_base,1,911,NaN,bird,elephant,NaN,elephant4-bird1.png
swin_base,1,912,NaN,bird,elephant,NaN,elephant4-boat3.png
swin_base,1,913,NaN,elephant,elephant,NaN,elephant4-car3.png
swin_base,1,914,NaN,elephant,elephant,NaN,elephant4-chair3.png
swin_base,1,915,NaN,elephant,elephant,NaN,elephant4-clock3.png
swin_base,1,916,NaN,bird,elephant,NaN,elephant4-oven1.png
swin_base,1,917,NaN,dog,elephant,NaN,elephant5-bear2.png
swin_base,1,918,NaN,dog,elephant,NaN,elephant5-bicycle3.png
swin_base,1,919,NaN,elephant,elephant,NaN,elephant5-bottle2.png
swin_base,1,920,NaN,elephant,elephant,NaN,elephant5-car1.png
swin_base,1,921,NaN,elephant,elephant,NaN,elephant5-chair3.png
swin_base,1,922,NaN,dog,elephant,NaN,elephant5-elephant1.png
swin_base,1,923,NaN,chair,elephant,NaN,elephant5-truck1.png
swin_base,1,924,NaN,dog,elephant,NaN,elephant6-bicycle1.png
swin_base,1,925,NaN,dog,elephant,NaN,elephant6-bird1.png
swin_base,1,926,NaN,elephant,elephant,NaN,elephant6-bottle2.png
swin_base,1,927,NaN,elephant,elephant,NaN,elephant6-car3.png
swin_base,1,928,NaN,dog,elephant,NaN,elephant6-cat2.png
swin_base,1,929,NaN,dog,elephant,NaN,elephant6-dog2.png
swin_base,1,930,NaN,elephant,elephant,NaN,elephant6-knife2.png
swin_base,1,931,NaN,bird,elephant,NaN,elephant6-oven1.png
swin_base,1,932,NaN,elephant,elephant,NaN,elephant6-truck3.png
swin_base,1,933,NaN,bird,elephant,NaN,elephant7-airplane3.png
swin_base,1,934,NaN,dog,elephant,NaN,elephant7-bear3.png
swin_base,1,935,NaN,dog,elephant,NaN,elephant7-bird1.png
swin_base,1,936,NaN,clock,elephant,NaN,elephant7-bottle3.png
swin_base,1,937,NaN,knife,elephant,NaN,elephant7-car3.png
swin_base,1,938,NaN,dog,elephant,NaN,elephant7-cat1.png
swin_base,1,939,NaN,bird,elephant,NaN,elephant7-clock2.png
swin_base,1,940,NaN,keyboard,elephant,NaN,elephant7-dog1.png
swin_base,1,941,NaN,elephant,elephant,NaN,elephant7-keyboard3.png
swin_base,1,942,NaN,bird,elephant,NaN,elephant7-knife2.png
swin_base,1,943,NaN,bird,elephant,NaN,elephant8-airplane3.png
swin_base,1,944,NaN,dog,elephant,NaN,elephant8-bicycle3.png
swin_base,1,945,NaN,dog,elephant,NaN,elephant8-bird2.png
swin_base,1,946,NaN,bird,elephant,NaN,elephant8-boat2.png
swin_base,1,947,NaN,dog,elephant,NaN,elephant8-cat1.png
swin_base,1,948,NaN,elephant,elephant,NaN,elephant8-clock2.png
swin_base,1,949,NaN,dog,elephant,NaN,elephant8-dog1.png
swin_base,1,950,NaN,dog,elephant,NaN,elephant8-elephant1.png
swin_base,1,951,NaN,elephant,elephant,NaN,elephant8-knife2.png
swin_base,1,952,NaN,bird,elephant,NaN,elephant8-oven3.png
swin_base,1,953,NaN,elephant,elephant,NaN,elephant8-truck3.png
swin_base,1,954,NaN,elephant,elephant,NaN,elephant9-airplane2.png
swin_base,1,955,NaN,elephant,elephant,NaN,elephant9-bicycle2.png
swin_base,1,956,NaN,bird,elephant,NaN,elephant9-boat3.png
swin_base,1,957,NaN,elephant,elephant,NaN,elephant9-chair2.png
swin_base,1,958,NaN,bird,elephant,NaN,elephant9-clock3.png
swin_base,1,959,NaN,dog,elephant,NaN,elephant9-dog3.png
swin_base,1,960,NaN,dog,elephant,NaN,elephant9-elephant3.png
swin_base,1,961,NaN,elephant,keyboard,NaN,keyboard1-airplane2.png
swin_base,1,962,NaN,dog,keyboard,NaN,keyboard1-bear2.png
swin_base,1,963,NaN,keyboard,keyboard,NaN,keyboard1-bird2.png
swin_base,1,964,NaN,dog,keyboard,NaN,keyboard1-car3.png
swin_base,1,965,NaN,bird,keyboard,NaN,keyboard1-chair2.png
swin_base,1,966,NaN,elephant,keyboard,NaN,keyboard1-clock1.png
swin_base,1,967,NaN,dog,keyboard,NaN,keyboard1-dog3.png
swin_base,1,968,NaN,bear,keyboard,NaN,keyboard1-elephant3.png
swin_base,1,969,NaN,elephant,keyboard,NaN,keyboard10-airplane3.png
swin_base,1,970,NaN,bottle,keyboard,NaN,keyboard10-boat2.png
swin_base,1,971,NaN,elephant,keyboard,NaN,keyboard10-car1.png
swin_base,1,972,NaN,bottle,keyboard,NaN,keyboard10-keyboard1.png
swin_base,1,973,NaN,bird,keyboard,NaN,keyboard10-oven3.png
swin_base,1,974,NaN,knife,keyboard,NaN,keyboard10-truck1.png
swin_base,1,975,NaN,keyboard,keyboard,NaN,keyboard2-bicycle3.png
swin_base,1,976,NaN,elephant,keyboard,NaN,keyboard2-bottle1.png
swin_base,1,977,NaN,elephant,keyboard,NaN,keyboard2-clock1.png
swin_base,1,978,NaN,dog,keyboard,NaN,keyboard2-elephant1.png
swin_base,1,979,NaN,elephant,keyboard,NaN,keyboard2-knife1.png
swin_base,1,980,NaN,elephant,keyboard,NaN,keyboard3-bicycle2.png
swin_base,1,981,NaN,chair,keyboard,NaN,keyboard3-bird3.png
swin_base,1,982,NaN,bottle,keyboard,NaN,keyboard3-boat1.png
swin_base,1,983,NaN,elephant,keyboard,NaN,keyboard3-car2.png
swin_base,1,984,NaN,dog,keyboard,NaN,keyboard3-cat1.png
swin_base,1,985,NaN,elephant,keyboard,NaN,keyboard3-clock3.png
swin_base,1,986,NaN,dog,keyboard,NaN,keyboard3-elephant2.png
swin_base,1,987,NaN,elephant,keyboard,NaN,keyboard4-bird1.png
swin_base,1,988,NaN,elephant,keyboard,NaN,keyboard4-bottle2.png
swin_base,1,989,NaN,keyboard,keyboard,NaN,keyboard4-cat2.png
swin_base,1,990,NaN,elephant,keyboard,NaN,keyboard4-clock2.png
swin_base,1,991,NaN,elephant,keyboard,NaN,keyboard4-keyboard2.png
swin_base,1,992,NaN,elephant,keyboard,NaN,keyboard4-knife2.png
swin_base,1,993,NaN,elephant,keyboard,NaN,keyboard4-oven2.png
swin_base,1,994,NaN,elephant,keyboard,NaN,keyboard4-truck3.png
swin_base,1,995,NaN,elephant,keyboard,NaN,keyboard5-airplane3.png
swin_base,1,996,NaN,dog,keyboard,NaN,keyboard5-bear3.png
swin_base,1,997,NaN,chair,keyboard,NaN,keyboard5-bicycle1.png
swin_base,1,998,NaN,elephant,keyboard,NaN,keyboard5-bird3.png
swin_base,1,999,NaN,elephant,keyboard,NaN,keyboard5-bottle1.png
swin_base,1,1000,NaN,dog,keyboard,NaN,keyboard5-cat1.png
swin_base,1,1001,NaN,dog,keyboard,NaN,keyboard5-dog3.png
swin_base,1,1002,NaN,elephant,keyboard,NaN,keyboard5-keyboard1.png
swin_base,1,1003,NaN,knife,keyboard,NaN,keyboard5-knife2.png
swin_base,1,1004,NaN,elephant,keyboard,NaN,keyboard5-oven2.png
swin_base,1,1005,NaN,dog,keyboard,NaN,keyboard6-bear2.png
swin_base,1,1006,NaN,elephant,keyboard,NaN,keyboard6-bicycle1.png
swin_base,1,1007,NaN,bottle,keyboard,NaN,keyboard6-boat2.png
swin_base,1,1008,NaN,elephant,keyboard,NaN,keyboard6-bottle2.png
swin_base,1,1009,NaN,keyboard,keyboard,NaN,keyboard6-car2.png
swin_base,1,1010,NaN,elephant,keyboard,NaN,keyboard6-chair1.png
swin_base,1,1011,NaN,dog,keyboard,NaN,keyboard6-dog2.png
swin_base,1,1012,NaN,dog,keyboard,NaN,keyboard6-elephant1.png
swin_base,1,1013,NaN,knife,keyboard,NaN,keyboard6-knife2.png
swin_base,1,1014,NaN,dog,keyboard,NaN,keyboard7-bear2.png
swin_base,1,1015,NaN,keyboard,keyboard,NaN,keyboard7-boat2.png
swin_base,1,1016,NaN,elephant,keyboard,NaN,keyboard7-bottle1.png
swin_base,1,1017,NaN,knife,keyboard,NaN,keyboard7-car3.png
swin_base,1,1018,NaN,elephant,keyboard,NaN,keyboard7-chair3.png
swin_base,1,1019,NaN,elephant,keyboard,NaN,keyboard7-clock3.png
swin_base,1,1020,NaN,dog,keyboard,NaN,keyboard7-dog1.png
swin_base,1,1021,NaN,elephant,keyboard,NaN,keyboard7-knife1.png
swin_base,1,1022,NaN,elephant,keyboard,NaN,keyboard7-oven2.png
swin_base,1,1023,NaN,boat,keyboard,NaN,keyboard7-truck2.png
swin_base,1,1024,NaN,elephant,keyboard,NaN,keyboard8-airplane2.png
swin_base,1,1025,NaN,bear,keyboard,NaN,keyboard8-cat3.png
swin_base,1,1026,NaN,elephant,keyboard,NaN,keyboard8-chair2.png
swin_base,1,1027,NaN,dog,keyboard,NaN,keyboard8-dog3.png
swin_base,1,1028,NaN,elephant,keyboard,NaN,keyboard8-keyboard2.png
swin_base,1,1029,NaN,elephant,keyboard,NaN,keyboard8-oven1.png
swin_base,1,1030,NaN,elephant,keyboard,NaN,keyboard8-truck3.png
swin_base,1,1031,NaN,elephant,keyboard,NaN,keyboard9-airplane3.png
swin_base,1,1032,NaN,dog,keyboard,NaN,keyboard9-bear2.png
swin_base,1,1033,NaN,keyboard,keyboard,NaN,keyboard9-bicycle2.png
swin_base,1,1034,NaN,elephant,keyboard,NaN,keyboard9-bird1.png
swin_base,1,1035,NaN,bird,keyboard,NaN,keyboard9-boat2.png
swin_base,1,1036,NaN,dog,keyboard,NaN,keyboard9-cat1.png
swin_base,1,1037,NaN,elephant,keyboard,NaN,keyboard9-chair2.png
swin_base,1,1038,NaN,dog,keyboard,NaN,keyboard9-elephant2.png
swin_base,1,1039,NaN,elephant,keyboard,NaN,keyboard9-keyboard2.png
swin_base,1,1040,NaN,elephant,keyboard,NaN,keyboard9-truck3.png
swin_base,1,1041,NaN,truck,knife,NaN,knife1-airplane1.png
swin_base,1,1042,NaN,car,knife,NaN,knife1-bird2.png
swin_base,1,1043,NaN,elephant,knife,NaN,knife1-car3.png
swin_base,1,1044,NaN,elephant,knife,NaN,knife1-chair1.png
swin_base,1,1045,NaN,bear,knife,NaN,knife1-clock2.png
swin_base,1,1046,NaN,keyboard,knife,NaN,knife1-dog1.png
swin_base,1,1047,NaN,dog,knife,NaN,knife1-elephant1.png
swin_base,1,1048,NaN,elephant,knife,NaN,knife1-keyboard3.png
swin_base,1,1049,NaN,elephant,knife,NaN,knife1-oven1.png
swin_base,1,1050,NaN,knife,knife,NaN,knife1-truck2.png
swin_base,1,1051,NaN,dog,knife,NaN,knife10-bear3.png
swin_base,1,1052,NaN,elephant,knife,NaN,knife10-chair1.png
swin_base,1,1053,NaN,keyboard,knife,NaN,knife10-dog1.png
swin_base,1,1054,NaN,dog,knife,NaN,knife10-elephant3.png
swin_base,1,1055,NaN,keyboard,knife,NaN,knife10-keyboard3.png
swin_base,1,1056,NaN,elephant,knife,NaN,knife10-knife1.png
swin_base,1,1057,NaN,elephant,knife,NaN,knife10-oven3.png
swin_base,1,1058,NaN,clock,knife,NaN,knife2-bear2.png
swin_base,1,1059,NaN,keyboard,knife,NaN,knife2-bicycle3.png
swin_base,1,1060,NaN,knife,knife,NaN,knife2-bird1.png
swin_base,1,1061,NaN,elephant,knife,NaN,knife2-bottle2.png
swin_base,1,1062,NaN,dog,knife,NaN,knife2-car3.png
swin_base,1,1063,NaN,bear,knife,NaN,knife2-cat3.png
swin_base,1,1064,NaN,keyboard,knife,NaN,knife2-dog1.png
swin_base,1,1065,NaN,dog,knife,NaN,knife2-elephant2.png
swin_base,1,1066,NaN,truck,knife,NaN,knife2-truck2.png
swin_base,1,1067,NaN,keyboard,knife,NaN,knife3-bear2.png
swin_base,1,1068,NaN,dog,knife,NaN,knife3-cat1.png
swin_base,1,1069,NaN,chair,knife,NaN,knife3-clock2.png
swin_base,1,1070,NaN,dog,knife,NaN,knife3-keyboard3.png
swin_base,1,1071,NaN,elephant,knife,NaN,knife3-knife1.png
swin_base,1,1072,NaN,elephant,knife,NaN,knife4-airplane3.png
swin_base,1,1073,NaN,dog,knife,NaN,knife4-bear1.png
swin_base,1,1074,NaN,elephant,knife,NaN,knife4-boat1.png
swin_base,1,1075,NaN,elephant,knife,NaN,knife4-car2.png
swin_base,1,1076,NaN,dog,knife,NaN,knife4-cat2.png
swin_base,1,1077,NaN,dog,knife,NaN,knife4-clock3.png
swin_base,1,1078,NaN,keyboard,knife,NaN,knife4-keyboard1.png
swin_base,1,1079,NaN,elephant,knife,NaN,knife4-knife2.png
swin_base,1,1080,NaN,elephant,knife,NaN,knife4-oven2.png
swin_base,1,1081,NaN,keyboard,knife,NaN,knife5-bicycle2.png
swin_base,1,1082,NaN,dog,knife,NaN,knife5-cat2.png
swin_base,1,1083,NaN,elephant,knife,NaN,knife5-clock1.png
swin_base,1,1084,NaN,keyboard,knife,NaN,knife5-dog1.png
swin_base,1,1085,NaN,elephant,knife,NaN,knife5-keyboard3.png
swin_base,1,1086,NaN,elephant,knife,NaN,knife5-knife3.png
swin_base,1,1087,NaN,elephant,knife,NaN,knife5-oven2.png
swin_base,1,1088,NaN,elephant,knife,NaN,knife5-truck3.png
swin_base,1,1089,NaN,truck,knife,NaN,knife6-airplane1.png
swin_base,1,1090,NaN,chair,knife,NaN,knife6-bicycle1.png
swin_base,1,1091,NaN,bear,knife,NaN,knife6-bird1.png
swin_base,1,1092,NaN,elephant,knife,NaN,knife6-boat3.png
swin_base,1,1093,NaN,knife,knife,NaN,knife6-bottle3.png
swin_base,1,1094,NaN,elephant,knife,NaN,knife6-chair3.png
swin_base,1,1095,NaN,elephant,knife,NaN,knife6-clock2.png
swin_base,1,1096,NaN,dog,knife,NaN,knife6-dog2.png
swin_base,1,1097,NaN,elephant,knife,NaN,knife6-knife1.png
swin_base,1,1098,NaN,elephant,knife,NaN,knife6-oven3.png
swin_base,1,1099,NaN,dog,knife,NaN,knife6-truck1.png
swin_base,1,1100,NaN,elephant,knife,NaN,knife7-airplane3.png
swin_base,1,1101,NaN,bird,knife,NaN,knife7-bird3.png
swin_base,1,1102,NaN,elephant,knife,NaN,knife7-boat3.png
swin_base,1,1103,NaN,knife,knife,NaN,knife7-bottle3.png
swin_base,1,1104,NaN,elephant,knife,NaN,knife7-car2.png
swin_base,1,1105,NaN,elephant,knife,NaN,knife7-chair2.png
swin_base,1,1106,NaN,dog,knife,NaN,knife7-elephant2.png
swin_base,1,1107,NaN,chair,knife,NaN,knife8-bicycle1.png
swin_base,1,1108,NaN,elephant,knife,NaN,knife8-boat1.png
swin_base,1,1109,NaN,knife,knife,NaN,knife8-bottle3.png
swin_base,1,1110,NaN,knife,knife,NaN,knife8-car2.png
swin_base,1,1111,NaN,keyboard,knife,NaN,knife8-cat2.png
swin_base,1,1112,NaN,elephant,knife,NaN,knife8-truck3.png
swin_base,1,1113,NaN,dog,knife,NaN,knife9-airplane2.png
swin_base,1,1114,NaN,dog,knife,NaN,knife9-bear3.png
swin_base,1,1115,NaN,dog,knife,NaN,knife9-bicycle1.png
swin_base,1,1116,NaN,bicycle,knife,NaN,knife9-bird1.png
swin_base,1,1117,NaN,elephant,knife,NaN,knife9-boat1.png
swin_base,1,1118,NaN,elephant,knife,NaN,knife9-bottle2.png
swin_base,1,1119,NaN,elephant,knife,NaN,knife9-chair1.png
swin_base,1,1120,NaN,dog,knife,NaN,knife9-elephant2.png
swin_base,1,1121,NaN,bird,oven,NaN,oven1-bird3.png
swin_base,1,1122,NaN,elephant,oven,NaN,oven1-boat3.png
swin_base,1,1123,NaN,dog,oven,NaN,oven1-cat1.png
swin_base,1,1124,NaN,elephant,oven,NaN,oven1-clock3.png
swin_base,1,1125,NaN,dog,oven,NaN,oven1-dog3.png
swin_base,1,1126,NaN,bird,oven,NaN,oven10-airplane2.png
swin_base,1,1127,NaN,dog,oven,NaN,oven10-bear1.png
swin_base,1,1128,NaN,chair,oven,NaN,oven10-bicycle1.png
swin_base,1,1129,NaN,bird,oven,NaN,oven10-boat2.png
swin_base,1,1130,NaN,dog,oven,NaN,oven10-cat2.png
swin_base,1,1131,NaN,bird,oven,NaN,oven10-oven3.png
swin_base,1,1132,NaN,truck,oven,NaN,oven10-truck2.png
swin_base,1,1133,NaN,dog,oven,NaN,oven2-bear3.png
swin_base,1,1134,NaN,chair,oven,NaN,oven2-bicycle1.png
swin_base,1,1135,NaN,keyboard,oven,NaN,oven2-bird2.png
swin_base,1,1136,NaN,bird,oven,NaN,oven2-boat3.png
swin_base,1,1137,NaN,elephant,oven,NaN,oven2-bottle1.png
swin_base,1,1138,NaN,keyboard,oven,NaN,oven2-car1.png
swin_base,1,1139,NaN,elephant,oven,NaN,oven2-chair1.png
swin_base,1,1140,NaN,dog,oven,NaN,oven2-dog3.png
swin_base,1,1141,NaN,bird,oven,NaN,oven2-oven3.png
swin_base,1,1142,NaN,elephant,oven,NaN,oven2-truck3.png
swin_base,1,1143,NaN,clock,oven,NaN,oven3-airplane1.png
swin_base,1,1144,NaN,dog,oven,NaN,oven3-bear2.png
swin_base,1,1145,NaN,dog,oven,NaN,oven3-boat3.png
swin_base,1,1146,NaN,clock,oven,NaN,oven3-bottle3.png
swin_base,1,1147,NaN,elephant,oven,NaN,oven3-car2.png
swin_base,1,1148,NaN,clock,oven,NaN,oven3-cat2.png
swin_base,1,1149,NaN,elephant,oven,NaN,oven3-clock3.png
swin_base,1,1150,NaN,dog,oven,NaN,oven3-elephant3.png
swin_base,1,1151,NaN,elephant,oven,NaN,oven3-knife1.png
swin_base,1,1152,NaN,elephant,oven,NaN,oven3-truck1.png
swin_base,1,1153,NaN,keyboard,oven,NaN,oven4-bicycle2.png
swin_base,1,1154,NaN,elephant,oven,NaN,oven4-bottle2.png
swin_base,1,1155,NaN,elephant,oven,NaN,oven4-car1.png
swin_base,1,1156,NaN,elephant,oven,NaN,oven4-chair1.png
swin_base,1,1157,NaN,knife,oven,NaN,oven4-clock2.png
swin_base,1,1158,NaN,dog,oven,NaN,oven4-dog1.png
swin_base,1,1159,NaN,clock,oven,NaN,oven4-elephant3.png
swin_base,1,1160,NaN,elephant,oven,NaN,oven4-keyboard3.png
swin_base,1,1161,NaN,elephant,oven,NaN,oven4-knife2.png
swin_base,1,1162,NaN,elephant,oven,NaN,oven4-truck3.png
swin_base,1,1163,NaN,keyboard,oven,NaN,oven5-airplane1.png
swin_base,1,1164,NaN,chair,oven,NaN,oven5-bicycle1.png
swin_base,1,1165,NaN,elephant,oven,NaN,oven5-bird1.png
swin_base,1,1166,NaN,clock,oven,NaN,oven5-bottle3.png
swin_base,1,1167,NaN,dog,oven,NaN,oven5-dog3.png
swin_base,1,1168,NaN,dog,oven,NaN,oven5-elephant1.png
swin_base,1,1169,NaN,keyboard,oven,NaN,oven5-keyboard2.png
swin_base,1,1170,NaN,elephant,oven,NaN,oven6-airplane3.png
swin_base,1,1171,NaN,dog,oven,NaN,oven6-bear2.png
swin_base,1,1172,NaN,chair,oven,NaN,oven6-bicycle1.png
swin_base,1,1173,NaN,bear,oven,NaN,oven6-bird1.png
swin_base,1,1174,NaN,elephant,oven,NaN,oven6-chair3.png
swin_base,1,1175,NaN,dog,oven,NaN,oven6-elephant2.png
swin_base,1,1176,NaN,elephant,oven,NaN,oven6-knife3.png
swin_base,1,1177,NaN,elephant,oven,NaN,oven6-oven3.png
swin_base,1,1178,NaN,clock,oven,NaN,oven6-truck1.png
swin_base,1,1179,NaN,elephant,oven,NaN,oven7-bottle1.png
swin_base,1,1180,NaN,elephant,oven,NaN,oven7-car3.png
swin_base,1,1181,NaN,dog,oven,NaN,oven7-cat1.png
swin_base,1,1182,NaN,elephant,oven,NaN,oven7-clock2.png
swin_base,1,1183,NaN,dog,oven,NaN,oven7-dog2.png
swin_base,1,1184,NaN,dog,oven,NaN,oven7-elephant1.png
swin_base,1,1185,NaN,elephant,oven,NaN,oven7-keyboard1.png
swin_base,1,1186,NaN,elephant,oven,NaN,oven7-oven1.png
swin_base,1,1187,NaN,bear,oven,NaN,oven8-cat3.png
swin_base,1,1188,NaN,elephant,oven,NaN,oven8-chair1.png
swin_base,1,1189,NaN,elephant,oven,NaN,oven8-keyboard3.png
swin_base,1,1190,NaN,bird,oven,NaN,oven8-knife2.png
swin_base,1,1191,NaN,elephant,oven,NaN,oven9-airplane2.png
swin_base,1,1192,NaN,dog,oven,NaN,oven9-bear2.png
swin_base,1,1193,NaN,dog,oven,NaN,oven9-bird3.png
swin_base,1,1194,NaN,dog,oven,NaN,oven9-boat2.png
swin_base,1,1195,NaN,elephant,oven,NaN,oven9-car2.png
swin_base,1,1196,NaN,elephant,oven,NaN,oven9-chair1.png
swin_base,1,1197,NaN,bear,oven,NaN,oven9-clock2.png
swin_base,1,1198,NaN,elephant,oven,NaN,oven9-keyboard1.png
swin_base,1,1199,NaN,elephant,oven,NaN,oven9-knife3.png
swin_base,1,1200,NaN,oven,oven,NaN,oven9-oven1.png
swin_base,1,1201,NaN,dog,truck,NaN,truck1-bear1.png
swin_base,1,1202,NaN,chair,truck,NaN,truck1-bicycle3.png
swin_base,1,1203,NaN,elephant,truck,NaN,truck1-bird1.png
swin_base,1,1204,NaN,truck,truck,NaN,truck1-car3.png
swin_base,1,1205,NaN,dog,truck,NaN,truck1-cat1.png
swin_base,1,1206,NaN,elephant,truck,NaN,truck1-chair2.png
swin_base,1,1207,NaN,elephant,truck,NaN,truck1-clock3.png
swin_base,1,1208,NaN,dog,truck,NaN,truck1-dog1.png
swin_base,1,1209,NaN,elephant,truck,NaN,truck1-knife1.png
swin_base,1,1210,NaN,keyboard,truck,NaN,truck10-airplane1.png
swin_base,1,1211,NaN,chair,truck,NaN,truck10-bicycle1.png
swin_base,1,1212,NaN,elephant,truck,NaN,truck10-car3.png
swin_base,1,1213,NaN,elephant,truck,NaN,truck10-clock1.png
swin_base,1,1214,NaN,bear,truck,NaN,truck10-elephant3.png
swin_base,1,1215,NaN,elephant,truck,NaN,truck10-truck3.png
swin_base,1,1216,NaN,elephant,truck,NaN,truck2-airplane3.png
swin_base,1,1217,NaN,keyboard,truck,NaN,truck2-bicycle2.png
swin_base,1,1218,NaN,keyboard,truck,NaN,truck2-bird2.png
swin_base,1,1219,NaN,bird,truck,NaN,truck2-boat3.png
swin_base,1,1220,NaN,knife,truck,NaN,truck2-bottle3.png
swin_base,1,1221,NaN,elephant,truck,NaN,truck2-car3.png
swin_base,1,1222,NaN,keyboard,truck,NaN,truck2-chair1.png
swin_base,1,1223,NaN,elephant,truck,NaN,truck2-clock1.png
swin_base,1,1224,NaN,dog,truck,NaN,truck2-elephant1.png
swin_base,1,1225,NaN,knife,truck,NaN,truck2-keyboard1.png
swin_base,1,1226,NaN,elephant,truck,NaN,truck2-oven3.png
swin_base,1,1227,NaN,dog,truck,NaN,truck3-bear3.png
swin_base,1,1228,NaN,bottle,truck,NaN,truck3-bicycle1.png
swin_base,1,1229,NaN,keyboard,truck,NaN,truck3-bird2.png
swin_base,1,1230,NaN,elephant,truck,NaN,truck3-car3.png
swin_base,1,1231,NaN,dog,truck,NaN,truck3-cat1.png
swin_base,1,1232,NaN,bird,truck,NaN,truck3-chair2.png
swin_base,1,1233,NaN,elephant,truck,NaN,truck3-clock3.png
swin_base,1,1234,NaN,dog,truck,NaN,truck3-dog3.png
swin_base,1,1235,NaN,elephant,truck,NaN,truck3-keyboard3.png
swin_base,1,1236,NaN,elephant,truck,NaN,truck3-knife2.png
swin_base,1,1237,NaN,elephant,truck,NaN,truck3-oven2.png
swin_base,1,1238,NaN,elephant,truck,NaN,truck4-airplane3.png
swin_base,1,1239,NaN,dog,truck,NaN,truck4-bear1.png
swin_base,1,1240,NaN,elephant,truck,NaN,truck4-boat3.png
swin_base,1,1241,NaN,elephant,truck,NaN,truck4-bottle2.png
swin_base,1,1242,NaN,knife,truck,NaN,truck4-knife1.png
swin_base,1,1243,NaN,elephant,truck,NaN,truck4-oven2.png
swin_base,1,1244,NaN,knife,truck,NaN,truck5-airplane2.png
swin_base,1,1245,NaN,bird,truck,NaN,truck5-bird2.png
swin_base,1,1246,NaN,elephant,truck,NaN,truck5-car1.png
swin_base,1,1247,NaN,dog,truck,NaN,truck5-cat3.png
swin_base,1,1248,NaN,dog,truck,NaN,truck5-dog3.png
swin_base,1,1249,NaN,bottle,truck,NaN,truck5-keyboard1.png
swin_base,1,1250,NaN,elephant,truck,NaN,truck5-knife3.png
swin_base,1,1251,NaN,car,truck,NaN,truck5-truck1.png
swin_base,1,1252,NaN,dog,truck,NaN,truck6-bear2.png
swin_base,1,1253,NaN,dog,truck,NaN,truck6-bicycle1.png
swin_base,1,1254,NaN,chair,truck,NaN,truck6-boat2.png
swin_base,1,1255,NaN,elephant,truck,NaN,truck6-bottle3.png
swin_base,1,1256,NaN,keyboard,truck,NaN,truck6-cat2.png
swin_base,1,1257,NaN,chair,truck,NaN,truck6-clock2.png
swin_base,1,1258,NaN,bird,truck,NaN,truck6-dog2.png
swin_base,1,1259,NaN,elephant,truck,NaN,truck6-knife2.png
swin_base,1,1260,NaN,elephant,truck,NaN,truck6-oven3.png
swin_base,1,1261,NaN,knife,truck,NaN,truck6-truck2.png
swin_base,1,1262,NaN,dog,truck,NaN,truck7-bear2.png
swin_base,1,1263,NaN,keyboard,truck,NaN,truck7-bird2.png
swin_base,1,1264,NaN,elephant,truck,NaN,truck7-boat1.png
swin_base,1,1265,NaN,bird,truck,NaN,truck7-chair2.png
swin_base,1,1266,NaN,dog,truck,NaN,truck7-elephant2.png
swin_base,1,1267,NaN,dog,truck,NaN,truck7-keyboard3.png
swin_base,1,1268,NaN,elephant,truck,NaN,truck7-oven2.png
swin_base,1,1269,NaN,bicycle,truck,NaN,truck7-truck2.png
swin_base,1,1270,NaN,elephant,truck,NaN,truck8-bottle2.png
swin_base,1,1271,NaN,keyboard,truck,NaN,truck8-cat2.png
swin_base,1,1272,NaN,dog,truck,NaN,truck8-dog3.png
swin_base,1,1273,NaN,dog,truck,NaN,truck8-elephant1.png
swin_base,1,1274,NaN,bottle,truck,NaN,truck8-keyboard2.png
swin_base,1,1275,NaN,elephant,truck,NaN,truck9-airplane2.png
swin_base,1,1276,NaN,truck,truck,NaN,truck9-boat3.png
swin_base,1,1277,NaN,elephant,truck,NaN,truck9-bottle2.png
swin_base,1,1278,NaN,elephant,truck,NaN,truck9-chair3.png
swin_base,1,1279,NaN,dog,truck,NaN,truck9-elephant1.png
swin_base,1,1280,NaN,elephant,truck,NaN,truck9-truck3.png
