subj,session,trial,rt,object_response,category,condition,imagename
barlow_twins,1,1,NaN,airplane,airplane,NaN,airplane1-bicycle2.png
barlow_twins,1,2,NaN,airplane,airplane,NaN,airplane1-chair2.png
barlow_twins,1,3,NaN,airplane,airplane,NaN,airplane1-clock1.png
barlow_twins,1,4,NaN,airplane,airplane,NaN,airplane1-elephant1.png
barlow_twins,1,5,NaN,knife,airplane,NaN,airplane10-airplane1.png
barlow_twins,1,6,NaN,knife,airplane,NaN,airplane10-bear3.png
barlow_twins,1,7,NaN,airplane,airplane,NaN,airplane10-boat3.png
barlow_twins,1,8,NaN,airplane,airplane,NaN,airplane10-car3.png
barlow_twins,1,9,NaN,knife,airplane,NaN,airplane10-cat2.png
barlow_twins,1,10,NaN,knife,airplane,NaN,airplane10-dog3.png
barlow_twins,1,11,NaN,oven,airplane,NaN,airplane10-elephant1.png
barlow_twins,1,12,NaN,airplane,airplane,NaN,airplane10-knife3.png
barlow_twins,1,13,NaN,airplane,airplane,NaN,airplane10-oven2.png
barlow_twins,1,14,NaN,airplane,airplane,NaN,airplane10-truck1.png
barlow_twins,1,15,NaN,bicycle,airplane,NaN,airplane2-bear1.png
barlow_twins,1,16,NaN,airplane,airplane,NaN,airplane2-bicycle1.png
barlow_twins,1,17,NaN,airplane,airplane,NaN,airplane2-bird3.png
barlow_twins,1,18,NaN,airplane,airplane,NaN,airplane2-bottle1.png
barlow_twins,1,19,NaN,bicycle,airplane,NaN,airplane2-cat1.png
barlow_twins,1,20,NaN,bicycle,airplane,NaN,airplane2-dog1.png
barlow_twins,1,21,NaN,airplane,airplane,NaN,airplane3-airplane2.png
barlow_twins,1,22,NaN,airplane,airplane,NaN,airplane3-car1.png
barlow_twins,1,23,NaN,bicycle,airplane,NaN,airplane3-cat1.png
barlow_twins,1,24,NaN,airplane,airplane,NaN,airplane3-chair3.png
barlow_twins,1,25,NaN,airplane,airplane,NaN,airplane3-clock1.png
barlow_twins,1,26,NaN,bicycle,airplane,NaN,airplane3-dog1.png
barlow_twins,1,27,NaN,oven,airplane,NaN,airplane3-elephant1.png
barlow_twins,1,28,NaN,bicycle,airplane,NaN,airplane3-keyboard2.png
barlow_twins,1,29,NaN,bicycle,airplane,NaN,airplane3-oven1.png
barlow_twins,1,30,NaN,knife,airplane,NaN,airplane4-airplane1.png
barlow_twins,1,31,NaN,bicycle,airplane,NaN,airplane4-bear3.png
barlow_twins,1,32,NaN,airplane,airplane,NaN,airplane4-bicycle2.png
barlow_twins,1,33,NaN,car,airplane,NaN,airplane4-bird3.png
barlow_twins,1,34,NaN,airplane,airplane,NaN,airplane4-boat3.png
barlow_twins,1,35,NaN,airplane,airplane,NaN,airplane4-bottle1.png
barlow_twins,1,36,NaN,airplane,airplane,NaN,airplane4-car1.png
barlow_twins,1,37,NaN,oven,airplane,NaN,airplane4-cat3.png
barlow_twins,1,38,NaN,bicycle,airplane,NaN,airplane4-dog2.png
barlow_twins,1,39,NaN,oven,airplane,NaN,airplane4-elephant1.png
barlow_twins,1,40,NaN,bicycle,airplane,NaN,airplane4-keyboard3.png
barlow_twins,1,41,NaN,airplane,airplane,NaN,airplane4-knife1.png
barlow_twins,1,42,NaN,airplane,airplane,NaN,airplane4-truck2.png
barlow_twins,1,43,NaN,bicycle,airplane,NaN,airplane5-bear2.png
barlow_twins,1,44,NaN,airplane,airplane,NaN,airplane5-bicycle1.png
barlow_twins,1,45,NaN,airplane,airplane,NaN,airplane5-bird2.png
barlow_twins,1,46,NaN,airplane,airplane,NaN,airplane5-boat3.png
barlow_twins,1,47,NaN,airplane,airplane,NaN,airplane5-bottle3.png
barlow_twins,1,48,NaN,airplane,airplane,NaN,airplane5-chair3.png
barlow_twins,1,49,NaN,bicycle,airplane,NaN,airplane5-dog3.png
barlow_twins,1,50,NaN,airplane,airplane,NaN,airplane5-knife1.png
barlow_twins,1,51,NaN,airplane,airplane,NaN,airplane5-oven3.png
barlow_twins,1,52,NaN,knife,airplane,NaN,airplane6-bear3.png
barlow_twins,1,53,NaN,airplane,airplane,NaN,airplane6-bottle2.png
barlow_twins,1,54,NaN,airplane,airplane,NaN,airplane6-chair3.png
barlow_twins,1,55,NaN,bicycle,airplane,NaN,airplane6-keyboard3.png
barlow_twins,1,56,NaN,airplane,airplane,NaN,airplane6-knife1.png
barlow_twins,1,57,NaN,airplane,airplane,NaN,airplane7-airplane3.png
barlow_twins,1,58,NaN,car,airplane,NaN,airplane7-bird3.png
barlow_twins,1,59,NaN,airplane,airplane,NaN,airplane7-boat2.png
barlow_twins,1,60,NaN,airplane,airplane,NaN,airplane7-bottle3.png
barlow_twins,1,61,NaN,airplane,airplane,NaN,airplane7-car1.png
barlow_twins,1,62,NaN,oven,airplane,NaN,airplane7-cat3.png
barlow_twins,1,63,NaN,airplane,airplane,NaN,airplane7-clock3.png
barlow_twins,1,64,NaN,airplane,airplane,NaN,airplane7-keyboard1.png
barlow_twins,1,65,NaN,airplane,airplane,NaN,airplane7-truck1.png
barlow_twins,1,66,NaN,keyboard,airplane,NaN,airplane8-bicycle3.png
barlow_twins,1,67,NaN,bicycle,airplane,NaN,airplane8-bird1.png
barlow_twins,1,68,NaN,airplane,airplane,NaN,airplane8-chair1.png
barlow_twins,1,69,NaN,airplane,airplane,NaN,airplane8-clock2.png
barlow_twins,1,70,NaN,airplane,airplane,NaN,airplane8-elephant3.png
barlow_twins,1,71,NaN,airplane,airplane,NaN,airplane8-oven2.png
barlow_twins,1,72,NaN,airplane,airplane,NaN,airplane8-truck3.png
barlow_twins,1,73,NaN,airplane,airplane,NaN,airplane9-airplane2.png
barlow_twins,1,74,NaN,car,airplane,NaN,airplane9-boat1.png
barlow_twins,1,75,NaN,airplane,airplane,NaN,airplane9-car2.png
barlow_twins,1,76,NaN,airplane,airplane,NaN,airplane9-clock1.png
barlow_twins,1,77,NaN,bicycle,airplane,NaN,airplane9-keyboard2.png
barlow_twins,1,78,NaN,airplane,airplane,NaN,airplane9-knife3.png
barlow_twins,1,79,NaN,airplane,airplane,NaN,airplane9-oven2.png
barlow_twins,1,80,NaN,airplane,airplane,NaN,airplane9-truck1.png
barlow_twins,1,81,NaN,airplane,bear,NaN,bear1-airplane3.png
barlow_twins,1,82,NaN,bicycle,bear,NaN,bear1-bear3.png
barlow_twins,1,83,NaN,bear,bear,NaN,bear1-bicycle3.png
barlow_twins,1,84,NaN,bear,bear,NaN,bear1-bird2.png
barlow_twins,1,85,NaN,airplane,bear,NaN,bear1-chair2.png
barlow_twins,1,86,NaN,airplane,bear,NaN,bear1-clock2.png
barlow_twins,1,87,NaN,oven,bear,NaN,bear1-elephant1.png
barlow_twins,1,88,NaN,oven,bear,NaN,bear10-bear2.png
barlow_twins,1,89,NaN,airplane,bear,NaN,bear10-bottle1.png
barlow_twins,1,90,NaN,airplane,bear,NaN,bear10-car2.png
barlow_twins,1,91,NaN,knife,bear,NaN,bear10-cat2.png
barlow_twins,1,92,NaN,keyboard,bear,NaN,bear10-chair2.png
barlow_twins,1,93,NaN,airplane,bear,NaN,bear10-clock1.png
barlow_twins,1,94,NaN,airplane,bear,NaN,bear10-elephant1.png
barlow_twins,1,95,NaN,bicycle,bear,NaN,bear10-keyboard3.png
barlow_twins,1,96,NaN,airplane,bear,NaN,bear10-knife2.png
barlow_twins,1,97,NaN,airplane,bear,NaN,bear10-oven1.png
barlow_twins,1,98,NaN,airplane,bear,NaN,bear10-truck1.png
barlow_twins,1,99,NaN,knife,bear,NaN,bear2-airplane1.png
barlow_twins,1,100,NaN,bicycle,bear,NaN,bear2-bird3.png
barlow_twins,1,101,NaN,airplane,bear,NaN,bear2-car2.png
barlow_twins,1,102,NaN,keyboard,bear,NaN,bear2-cat2.png
barlow_twins,1,103,NaN,car,bear,NaN,bear2-dog1.png
barlow_twins,1,104,NaN,oven,bear,NaN,bear2-elephant1.png
barlow_twins,1,105,NaN,car,bear,NaN,bear2-keyboard2.png
barlow_twins,1,106,NaN,airplane,bear,NaN,bear2-knife2.png
barlow_twins,1,107,NaN,airplane,bear,NaN,bear2-oven1.png
barlow_twins,1,108,NaN,knife,bear,NaN,bear3-airplane1.png
barlow_twins,1,109,NaN,clock,bear,NaN,bear3-bicycle2.png
barlow_twins,1,110,NaN,car,bear,NaN,bear3-bird3.png
barlow_twins,1,111,NaN,airplane,bear,NaN,bear3-car2.png
barlow_twins,1,112,NaN,bicycle,bear,NaN,bear3-cat1.png
barlow_twins,1,113,NaN,keyboard,bear,NaN,bear3-chair2.png
barlow_twins,1,114,NaN,bicycle,bear,NaN,bear3-dog3.png
barlow_twins,1,115,NaN,clock,bear,NaN,bear3-keyboard2.png
barlow_twins,1,116,NaN,airplane,bear,NaN,bear3-truck3.png
barlow_twins,1,117,NaN,airplane,bear,NaN,bear4-boat2.png
barlow_twins,1,118,NaN,airplane,bear,NaN,bear4-car3.png
barlow_twins,1,119,NaN,knife,bear,NaN,bear4-cat3.png
barlow_twins,1,120,NaN,airplane,bear,NaN,bear4-clock3.png
barlow_twins,1,121,NaN,oven,bear,NaN,bear4-elephant2.png
barlow_twins,1,122,NaN,bicycle,bear,NaN,bear4-keyboard3.png
barlow_twins,1,123,NaN,airplane,bear,NaN,bear4-knife1.png
barlow_twins,1,124,NaN,airplane,bear,NaN,bear4-oven2.png
barlow_twins,1,125,NaN,airplane,bear,NaN,bear4-truck3.png
barlow_twins,1,126,NaN,airplane,bear,NaN,bear5-airplane3.png
barlow_twins,1,127,NaN,car,bear,NaN,bear5-bicycle3.png
barlow_twins,1,128,NaN,bicycle,bear,NaN,bear5-bird1.png
barlow_twins,1,129,NaN,bear,bear,NaN,bear5-boat2.png
barlow_twins,1,130,NaN,airplane,bear,NaN,bear5-bottle1.png
barlow_twins,1,131,NaN,airplane,bear,NaN,bear5-chair1.png
barlow_twins,1,132,NaN,airplane,bear,NaN,bear5-oven3.png
barlow_twins,1,133,NaN,bicycle,bear,NaN,bear6-bear1.png
barlow_twins,1,134,NaN,airplane,bear,NaN,bear6-bird2.png
barlow_twins,1,135,NaN,airplane,bear,NaN,bear6-boat3.png
barlow_twins,1,136,NaN,airplane,bear,NaN,bear6-bottle3.png
barlow_twins,1,137,NaN,airplane,bear,NaN,bear6-car2.png
barlow_twins,1,138,NaN,oven,bear,NaN,bear6-cat3.png
barlow_twins,1,139,NaN,airplane,bear,NaN,bear6-chair1.png
barlow_twins,1,140,NaN,airplane,bear,NaN,bear6-clock1.png
barlow_twins,1,141,NaN,oven,bear,NaN,bear7-bear2.png
barlow_twins,1,142,NaN,airplane,bear,NaN,bear7-bicycle2.png
barlow_twins,1,143,NaN,airplane,bear,NaN,bear7-clock1.png
barlow_twins,1,144,NaN,bicycle,bear,NaN,bear7-dog3.png
barlow_twins,1,145,NaN,airplane,bear,NaN,bear7-oven3.png
barlow_twins,1,146,NaN,airplane,bear,NaN,bear7-truck1.png
barlow_twins,1,147,NaN,knife,bear,NaN,bear8-airplane1.png
barlow_twins,1,148,NaN,airplane,bear,NaN,bear8-bear1.png
barlow_twins,1,149,NaN,keyboard,bear,NaN,bear8-bicycle3.png
barlow_twins,1,150,NaN,keyboard,bear,NaN,bear8-boat2.png
barlow_twins,1,151,NaN,airplane,bear,NaN,bear8-bottle1.png
barlow_twins,1,152,NaN,keyboard,bear,NaN,bear8-dog1.png
barlow_twins,1,153,NaN,oven,bear,NaN,bear8-elephant2.png
barlow_twins,1,154,NaN,airplane,bear,NaN,bear8-knife3.png
barlow_twins,1,155,NaN,airplane,bear,NaN,bear8-truck3.png
barlow_twins,1,156,NaN,keyboard,bear,NaN,bear9-boat2.png
barlow_twins,1,157,NaN,airplane,bear,NaN,bear9-bottle2.png
barlow_twins,1,158,NaN,oven,bear,NaN,bear9-dog1.png
barlow_twins,1,159,NaN,bicycle,bear,NaN,bear9-keyboard3.png
barlow_twins,1,160,NaN,airplane,bear,NaN,bear9-knife2.png
barlow_twins,1,161,NaN,car,bicycle,NaN,bicycle1-airplane2.png
barlow_twins,1,162,NaN,airplane,bicycle,NaN,bicycle1-bear1.png
barlow_twins,1,163,NaN,keyboard,bicycle,NaN,bicycle1-bicycle3.png
barlow_twins,1,164,NaN,bicycle,bicycle,NaN,bicycle1-bird1.png
barlow_twins,1,165,NaN,airplane,bicycle,NaN,bicycle1-boat3.png
barlow_twins,1,166,NaN,airplane,bicycle,NaN,bicycle1-bottle3.png
barlow_twins,1,167,NaN,airplane,bicycle,NaN,bicycle1-chair1.png
barlow_twins,1,168,NaN,oven,bicycle,NaN,bicycle1-clock3.png
barlow_twins,1,169,NaN,clock,bicycle,NaN,bicycle1-dog3.png
barlow_twins,1,170,NaN,oven,bicycle,NaN,bicycle1-elephant2.png
barlow_twins,1,171,NaN,airplane,bicycle,NaN,bicycle1-knife3.png
barlow_twins,1,172,NaN,car,bicycle,NaN,bicycle1-oven1.png
barlow_twins,1,173,NaN,airplane,bicycle,NaN,bicycle1-truck1.png
barlow_twins,1,174,NaN,airplane,bicycle,NaN,bicycle10-airplane2.png
barlow_twins,1,175,NaN,airplane,bicycle,NaN,bicycle10-boat3.png
barlow_twins,1,176,NaN,airplane,bicycle,NaN,bicycle10-clock2.png
barlow_twins,1,177,NaN,car,bicycle,NaN,bicycle10-dog3.png
barlow_twins,1,178,NaN,oven,bicycle,NaN,bicycle10-elephant2.png
barlow_twins,1,179,NaN,clock,bicycle,NaN,bicycle2-bicycle1.png
barlow_twins,1,180,NaN,car,bicycle,NaN,bicycle2-bird3.png
barlow_twins,1,181,NaN,airplane,bicycle,NaN,bicycle2-bottle1.png
barlow_twins,1,182,NaN,airplane,bicycle,NaN,bicycle2-car2.png
barlow_twins,1,183,NaN,car,bicycle,NaN,bicycle2-dog1.png
barlow_twins,1,184,NaN,clock,bicycle,NaN,bicycle2-keyboard2.png
barlow_twins,1,185,NaN,airplane,bicycle,NaN,bicycle2-knife2.png
barlow_twins,1,186,NaN,clock,bicycle,NaN,bicycle3-bird1.png
barlow_twins,1,187,NaN,oven,bicycle,NaN,bicycle3-elephant2.png
barlow_twins,1,188,NaN,airplane,bicycle,NaN,bicycle3-keyboard1.png
barlow_twins,1,189,NaN,airplane,bicycle,NaN,bicycle3-oven3.png
barlow_twins,1,190,NaN,airplane,bicycle,NaN,bicycle3-truck3.png
barlow_twins,1,191,NaN,knife,bicycle,NaN,bicycle4-airplane1.png
barlow_twins,1,192,NaN,keyboard,bicycle,NaN,bicycle4-bicycle3.png
barlow_twins,1,193,NaN,car,bicycle,NaN,bicycle4-boat1.png
barlow_twins,1,194,NaN,airplane,bicycle,NaN,bicycle4-bottle1.png
barlow_twins,1,195,NaN,airplane,bicycle,NaN,bicycle4-car2.png
barlow_twins,1,196,NaN,clock,bicycle,NaN,bicycle4-cat1.png
barlow_twins,1,197,NaN,airplane,bicycle,NaN,bicycle4-chair2.png
barlow_twins,1,198,NaN,airplane,bicycle,NaN,bicycle4-clock3.png
barlow_twins,1,199,NaN,bicycle,bicycle,NaN,bicycle4-keyboard3.png
barlow_twins,1,200,NaN,airplane,bicycle,NaN,bicycle4-knife3.png
barlow_twins,1,201,NaN,airplane,bicycle,NaN,bicycle4-oven3.png
barlow_twins,1,202,NaN,airplane,bicycle,NaN,bicycle4-truck3.png
barlow_twins,1,203,NaN,knife,bicycle,NaN,bicycle5-bear1.png
barlow_twins,1,204,NaN,airplane,bicycle,NaN,bicycle5-bottle3.png
barlow_twins,1,205,NaN,airplane,bicycle,NaN,bicycle5-car3.png
barlow_twins,1,206,NaN,bicycle,bicycle,NaN,bicycle5-cat1.png
barlow_twins,1,207,NaN,airplane,bicycle,NaN,bicycle5-chair2.png
barlow_twins,1,208,NaN,bear,bicycle,NaN,bicycle5-dog2.png
barlow_twins,1,209,NaN,airplane,bicycle,NaN,bicycle5-elephant1.png
barlow_twins,1,210,NaN,bicycle,bicycle,NaN,bicycle5-keyboard3.png
barlow_twins,1,211,NaN,airplane,bicycle,NaN,bicycle5-oven3.png
barlow_twins,1,212,NaN,airplane,bicycle,NaN,bicycle6-airplane2.png
barlow_twins,1,213,NaN,car,bicycle,NaN,bicycle6-bicycle3.png
barlow_twins,1,214,NaN,keyboard,bicycle,NaN,bicycle6-boat2.png
barlow_twins,1,215,NaN,airplane,bicycle,NaN,bicycle6-car2.png
barlow_twins,1,216,NaN,bicycle,bicycle,NaN,bicycle6-cat1.png
barlow_twins,1,217,NaN,bicycle,bicycle,NaN,bicycle6-dog2.png
barlow_twins,1,218,NaN,bicycle,bicycle,NaN,bicycle7-bear2.png
barlow_twins,1,219,NaN,oven,bicycle,NaN,bicycle7-bicycle2.png
barlow_twins,1,220,NaN,clock,bicycle,NaN,bicycle7-cat1.png
barlow_twins,1,221,NaN,bicycle,bicycle,NaN,bicycle7-clock3.png
barlow_twins,1,222,NaN,oven,bicycle,NaN,bicycle7-elephant2.png
barlow_twins,1,223,NaN,airplane,bicycle,NaN,bicycle7-knife2.png
barlow_twins,1,224,NaN,knife,bicycle,NaN,bicycle7-oven1.png
barlow_twins,1,225,NaN,airplane,bicycle,NaN,bicycle7-truck3.png
barlow_twins,1,226,NaN,bicycle,bicycle,NaN,bicycle8-bear2.png
barlow_twins,1,227,NaN,clock,bicycle,NaN,bicycle8-bird2.png
barlow_twins,1,228,NaN,car,bicycle,NaN,bicycle8-boat1.png
barlow_twins,1,229,NaN,airplane,bicycle,NaN,bicycle8-chair2.png
barlow_twins,1,230,NaN,clock,bicycle,NaN,bicycle8-clock3.png
barlow_twins,1,231,NaN,airplane,bicycle,NaN,bicycle8-truck1.png
barlow_twins,1,232,NaN,bicycle,bicycle,NaN,bicycle9-airplane2.png
barlow_twins,1,233,NaN,airplane,bicycle,NaN,bicycle9-bear1.png
barlow_twins,1,234,NaN,car,bicycle,NaN,bicycle9-bird3.png
barlow_twins,1,235,NaN,airplane,bicycle,NaN,bicycle9-bottle1.png
barlow_twins,1,236,NaN,airplane,bicycle,NaN,bicycle9-car1.png
barlow_twins,1,237,NaN,clock,bicycle,NaN,bicycle9-cat3.png
barlow_twins,1,238,NaN,oven,bicycle,NaN,bicycle9-chair1.png
barlow_twins,1,239,NaN,bicycle,bicycle,NaN,bicycle9-keyboard3.png
barlow_twins,1,240,NaN,airplane,bicycle,NaN,bicycle9-knife3.png
barlow_twins,1,241,NaN,airplane,bird,NaN,bird1-airplane2.png
barlow_twins,1,242,NaN,knife,bird,NaN,bird1-bear1.png
barlow_twins,1,243,NaN,airplane,bird,NaN,bird1-bicycle2.png
barlow_twins,1,244,NaN,airplane,bird,NaN,bird1-boat1.png
barlow_twins,1,245,NaN,airplane,bird,NaN,bird1-chair2.png
barlow_twins,1,246,NaN,bicycle,bird,NaN,bird1-clock3.png
barlow_twins,1,247,NaN,oven,bird,NaN,bird1-elephant2.png
barlow_twins,1,248,NaN,bicycle,bird,NaN,bird1-keyboard3.png
barlow_twins,1,249,NaN,airplane,bird,NaN,bird1-knife3.png
barlow_twins,1,250,NaN,elephant,bird,NaN,bird1-oven1.png
barlow_twins,1,251,NaN,airplane,bird,NaN,bird1-truck1.png
barlow_twins,1,252,NaN,knife,bird,NaN,bird10-bear2.png
barlow_twins,1,253,NaN,airplane,bird,NaN,bird10-bicycle1.png
barlow_twins,1,254,NaN,airplane,bird,NaN,bird10-bird2.png
barlow_twins,1,255,NaN,bicycle,bird,NaN,bird10-cat1.png
barlow_twins,1,256,NaN,airplane,bird,NaN,bird10-chair1.png
barlow_twins,1,257,NaN,airplane,bird,NaN,bird10-clock1.png
barlow_twins,1,258,NaN,oven,bird,NaN,bird10-elephant2.png
barlow_twins,1,259,NaN,airplane,bird,NaN,bird2-airplane3.png
barlow_twins,1,260,NaN,airplane,bird,NaN,bird2-bird2.png
barlow_twins,1,261,NaN,airplane,bird,NaN,bird2-car3.png
barlow_twins,1,262,NaN,airplane,bird,NaN,bird2-clock3.png
barlow_twins,1,263,NaN,clock,bird,NaN,bird2-dog2.png
barlow_twins,1,264,NaN,airplane,bird,NaN,bird2-knife1.png
barlow_twins,1,265,NaN,oven,bird,NaN,bird3-bear3.png
barlow_twins,1,266,NaN,airplane,bird,NaN,bird3-bird2.png
barlow_twins,1,267,NaN,airplane,bird,NaN,bird3-boat3.png
barlow_twins,1,268,NaN,airplane,bird,NaN,bird3-bottle2.png
barlow_twins,1,269,NaN,knife,bird,NaN,bird3-cat1.png
barlow_twins,1,270,NaN,bicycle,bird,NaN,bird3-dog1.png
barlow_twins,1,271,NaN,airplane,bird,NaN,bird3-knife3.png
barlow_twins,1,272,NaN,airplane,bird,NaN,bird3-oven1.png
barlow_twins,1,273,NaN,airplane,bird,NaN,bird3-truck3.png
barlow_twins,1,274,NaN,knife,bird,NaN,bird4-airplane1.png
barlow_twins,1,275,NaN,airplane,bird,NaN,bird4-bicycle2.png
barlow_twins,1,276,NaN,oven,bird,NaN,bird4-cat3.png
barlow_twins,1,277,NaN,airplane,bird,NaN,bird4-clock1.png
barlow_twins,1,278,NaN,bicycle,bird,NaN,bird4-dog3.png
barlow_twins,1,279,NaN,airplane,bird,NaN,bird5-airplane3.png
barlow_twins,1,280,NaN,oven,bird,NaN,bird5-bear3.png
barlow_twins,1,281,NaN,airplane,bird,NaN,bird5-bicycle1.png
barlow_twins,1,282,NaN,clock,bird,NaN,bird5-bird1.png
barlow_twins,1,283,NaN,airplane,bird,NaN,bird5-car2.png
barlow_twins,1,284,NaN,knife,bird,NaN,bird5-cat2.png
barlow_twins,1,285,NaN,airplane,bird,NaN,bird5-chair1.png
barlow_twins,1,286,NaN,bicycle,bird,NaN,bird5-dog2.png
barlow_twins,1,287,NaN,clock,bird,NaN,bird5-keyboard2.png
barlow_twins,1,288,NaN,airplane,bird,NaN,bird5-oven3.png
barlow_twins,1,289,NaN,airplane,bird,NaN,bird5-truck2.png
barlow_twins,1,290,NaN,airplane,bird,NaN,bird6-airplane2.png
barlow_twins,1,291,NaN,airplane,bird,NaN,bird6-boat2.png
barlow_twins,1,292,NaN,airplane,bird,NaN,bird6-bottle3.png
barlow_twins,1,293,NaN,airplane,bird,NaN,bird6-car3.png
barlow_twins,1,294,NaN,oven,bird,NaN,bird6-elephant2.png
barlow_twins,1,295,NaN,car,bird,NaN,bird6-oven1.png
barlow_twins,1,296,NaN,airplane,bird,NaN,bird6-truck2.png
barlow_twins,1,297,NaN,airplane,bird,NaN,bird7-bird2.png
barlow_twins,1,298,NaN,airplane,bird,NaN,bird7-boat1.png
barlow_twins,1,299,NaN,airplane,bird,NaN,bird7-bottle1.png
barlow_twins,1,300,NaN,airplane,bird,NaN,bird7-car2.png
barlow_twins,1,301,NaN,oven,bird,NaN,bird7-cat3.png
barlow_twins,1,302,NaN,airplane,bird,NaN,bird7-keyboard3.png
barlow_twins,1,303,NaN,airplane,bird,NaN,bird7-knife2.png
barlow_twins,1,304,NaN,airplane,bird,NaN,bird7-oven3.png
barlow_twins,1,305,NaN,airplane,bird,NaN,bird7-truck2.png
barlow_twins,1,306,NaN,airplane,bird,NaN,bird8-boat3.png
barlow_twins,1,307,NaN,airplane,bird,NaN,bird8-bottle1.png
barlow_twins,1,308,NaN,airplane,bird,NaN,bird8-car2.png
barlow_twins,1,309,NaN,airplane,bird,NaN,bird8-chair1.png
barlow_twins,1,310,NaN,airplane,bird,NaN,bird8-clock1.png
barlow_twins,1,311,NaN,oven,bird,NaN,bird8-elephant1.png
barlow_twins,1,312,NaN,bicycle,bird,NaN,bird8-keyboard2.png
barlow_twins,1,313,NaN,airplane,bird,NaN,bird8-knife2.png
barlow_twins,1,314,NaN,knife,bird,NaN,bird9-bear3.png
barlow_twins,1,315,NaN,knife,bird,NaN,bird9-bicycle3.png
barlow_twins,1,316,NaN,airplane,bird,NaN,bird9-bottle3.png
barlow_twins,1,317,NaN,airplane,bird,NaN,bird9-chair1.png
barlow_twins,1,318,NaN,bicycle,bird,NaN,bird9-dog2.png
barlow_twins,1,319,NaN,oven,bird,NaN,bird9-elephant2.png
barlow_twins,1,320,NaN,airplane,bird,NaN,bird9-keyboard1.png
barlow_twins,1,321,NaN,airplane,boat,NaN,boat1-bear1.png
barlow_twins,1,322,NaN,keyboard,boat,NaN,boat1-bicycle2.png
barlow_twins,1,323,NaN,car,boat,NaN,boat1-bird3.png
barlow_twins,1,324,NaN,airplane,boat,NaN,boat1-car2.png
barlow_twins,1,325,NaN,airplane,boat,NaN,boat1-chair3.png
barlow_twins,1,326,NaN,oven,boat,NaN,boat1-elephant3.png
barlow_twins,1,327,NaN,clock,boat,NaN,boat1-keyboard3.png
barlow_twins,1,328,NaN,car,boat,NaN,boat1-oven1.png
barlow_twins,1,329,NaN,airplane,boat,NaN,boat1-truck3.png
barlow_twins,1,330,NaN,oven,boat,NaN,boat10-bear3.png
barlow_twins,1,331,NaN,airplane,boat,NaN,boat10-boat3.png
barlow_twins,1,332,NaN,bicycle,boat,NaN,boat10-cat1.png
barlow_twins,1,333,NaN,airplane,boat,NaN,boat10-oven1.png
barlow_twins,1,334,NaN,airplane,boat,NaN,boat10-truck1.png
barlow_twins,1,335,NaN,bicycle,boat,NaN,boat2-airplane1.png
barlow_twins,1,336,NaN,oven,boat,NaN,boat2-bear3.png
barlow_twins,1,337,NaN,bicycle,boat,NaN,boat2-bird1.png
barlow_twins,1,338,NaN,airplane,boat,NaN,boat2-bottle2.png
barlow_twins,1,339,NaN,bicycle,boat,NaN,boat2-keyboard1.png
barlow_twins,1,340,NaN,airplane,boat,NaN,boat2-oven3.png
barlow_twins,1,341,NaN,airplane,boat,NaN,boat3-airplane2.png
barlow_twins,1,342,NaN,airplane,boat,NaN,boat3-bicycle2.png
barlow_twins,1,343,NaN,airplane,boat,NaN,boat3-car3.png
barlow_twins,1,344,NaN,oven,boat,NaN,boat3-cat3.png
barlow_twins,1,345,NaN,airplane,boat,NaN,boat3-chair3.png
barlow_twins,1,346,NaN,airplane,boat,NaN,boat3-clock3.png
barlow_twins,1,347,NaN,bicycle,boat,NaN,boat3-dog3.png
barlow_twins,1,348,NaN,bicycle,boat,NaN,boat3-keyboard2.png
barlow_twins,1,349,NaN,keyboard,boat,NaN,boat4-bicycle3.png
barlow_twins,1,350,NaN,elephant,boat,NaN,boat4-bird1.png
barlow_twins,1,351,NaN,airplane,boat,NaN,boat4-boat3.png
barlow_twins,1,352,NaN,airplane,boat,NaN,boat4-bottle2.png
barlow_twins,1,353,NaN,car,boat,NaN,boat4-car3.png
barlow_twins,1,354,NaN,airplane,boat,NaN,boat4-chair2.png
barlow_twins,1,355,NaN,bicycle,boat,NaN,boat4-dog2.png
barlow_twins,1,356,NaN,oven,boat,NaN,boat4-elephant2.png
barlow_twins,1,357,NaN,airplane,boat,NaN,boat4-knife2.png
barlow_twins,1,358,NaN,knife,boat,NaN,boat5-airplane1.png
barlow_twins,1,359,NaN,keyboard,boat,NaN,boat5-bicycle3.png
barlow_twins,1,360,NaN,airplane,boat,NaN,boat5-boat3.png
barlow_twins,1,361,NaN,airplane,boat,NaN,boat5-car3.png
barlow_twins,1,362,NaN,airplane,boat,NaN,boat5-clock3.png
barlow_twins,1,363,NaN,airplane,boat,NaN,boat5-knife2.png
barlow_twins,1,364,NaN,airplane,boat,NaN,boat6-airplane2.png
barlow_twins,1,365,NaN,knife,boat,NaN,boat6-bear1.png
barlow_twins,1,366,NaN,car,boat,NaN,boat6-bicycle2.png
barlow_twins,1,367,NaN,airplane,boat,NaN,boat6-bottle2.png
barlow_twins,1,368,NaN,airplane,boat,NaN,boat6-car1.png
barlow_twins,1,369,NaN,bicycle,boat,NaN,boat6-cat1.png
barlow_twins,1,370,NaN,airplane,boat,NaN,boat6-clock2.png
barlow_twins,1,371,NaN,bicycle,boat,NaN,boat6-dog1.png
barlow_twins,1,372,NaN,oven,boat,NaN,boat6-elephant2.png
barlow_twins,1,373,NaN,airplane,boat,NaN,boat6-knife2.png
barlow_twins,1,374,NaN,airplane,boat,NaN,boat6-truck3.png
barlow_twins,1,375,NaN,airplane,boat,NaN,boat7-boat2.png
barlow_twins,1,376,NaN,airplane,boat,NaN,boat7-bottle1.png
barlow_twins,1,377,NaN,knife,boat,NaN,boat7-cat3.png
barlow_twins,1,378,NaN,airplane,boat,NaN,boat7-chair1.png
barlow_twins,1,379,NaN,airplane,boat,NaN,boat7-clock3.png
barlow_twins,1,380,NaN,oven,boat,NaN,boat7-elephant3.png
barlow_twins,1,381,NaN,airplane,boat,NaN,boat7-keyboard3.png
barlow_twins,1,382,NaN,airplane,boat,NaN,boat7-oven3.png
barlow_twins,1,383,NaN,airplane,boat,NaN,boat7-truck2.png
barlow_twins,1,384,NaN,bicycle,boat,NaN,boat8-bird2.png
barlow_twins,1,385,NaN,airplane,boat,NaN,boat8-bottle1.png
barlow_twins,1,386,NaN,oven,boat,NaN,boat8-dog3.png
barlow_twins,1,387,NaN,cat,boat,NaN,boat8-elephant1.png
barlow_twins,1,388,NaN,airplane,boat,NaN,boat8-knife1.png
barlow_twins,1,389,NaN,car,boat,NaN,boat8-oven1.png
barlow_twins,1,390,NaN,airplane,boat,NaN,boat8-truck2.png
barlow_twins,1,391,NaN,airplane,boat,NaN,boat9-airplane2.png
barlow_twins,1,392,NaN,bicycle,boat,NaN,boat9-bear3.png
barlow_twins,1,393,NaN,clock,boat,NaN,boat9-bird1.png
barlow_twins,1,394,NaN,airplane,boat,NaN,boat9-boat3.png
barlow_twins,1,395,NaN,bicycle,boat,NaN,boat9-cat3.png
barlow_twins,1,396,NaN,airplane,boat,NaN,boat9-chair2.png
barlow_twins,1,397,NaN,airplane,boat,NaN,boat9-clock1.png
barlow_twins,1,398,NaN,clock,boat,NaN,boat9-dog2.png
barlow_twins,1,399,NaN,bicycle,boat,NaN,boat9-keyboard2.png
barlow_twins,1,400,NaN,airplane,boat,NaN,boat9-knife2.png
barlow_twins,1,401,NaN,knife,bottle,NaN,bottle1-bear1.png
barlow_twins,1,402,NaN,airplane,bottle,NaN,bottle1-bird3.png
barlow_twins,1,403,NaN,airplane,bottle,NaN,bottle1-car1.png
barlow_twins,1,404,NaN,car,bottle,NaN,bottle1-cat3.png
barlow_twins,1,405,NaN,airplane,bottle,NaN,bottle1-chair2.png
barlow_twins,1,406,NaN,airplane,bottle,NaN,bottle1-clock1.png
barlow_twins,1,407,NaN,airplane,bottle,NaN,bottle1-dog2.png
barlow_twins,1,408,NaN,airplane,bottle,NaN,bottle1-keyboard3.png
barlow_twins,1,409,NaN,bicycle,bottle,NaN,bottle10-bear2.png
barlow_twins,1,410,NaN,airplane,bottle,NaN,bottle10-boat3.png
barlow_twins,1,411,NaN,airplane,bottle,NaN,bottle10-car1.png
barlow_twins,1,412,NaN,airplane,bottle,NaN,bottle10-clock2.png
barlow_twins,1,413,NaN,knife,bottle,NaN,bottle10-dog1.png
barlow_twins,1,414,NaN,airplane,bottle,NaN,bottle10-truck3.png
barlow_twins,1,415,NaN,airplane,bottle,NaN,bottle2-bottle3.png
barlow_twins,1,416,NaN,airplane,bottle,NaN,bottle2-car2.png
barlow_twins,1,417,NaN,airplane,bottle,NaN,bottle2-chair3.png
barlow_twins,1,418,NaN,airplane,bottle,NaN,bottle2-clock1.png
barlow_twins,1,419,NaN,airplane,bottle,NaN,bottle2-elephant1.png
barlow_twins,1,420,NaN,airplane,bottle,NaN,bottle2-knife3.png
barlow_twins,1,421,NaN,airplane,bottle,NaN,bottle3-airplane2.png
barlow_twins,1,422,NaN,bicycle,bottle,NaN,bottle3-bear2.png
barlow_twins,1,423,NaN,airplane,bottle,NaN,bottle3-bicycle3.png
barlow_twins,1,424,NaN,clock,bottle,NaN,bottle3-bird1.png
barlow_twins,1,425,NaN,airplane,bottle,NaN,bottle3-boat3.png
barlow_twins,1,426,NaN,airplane,bottle,NaN,bottle3-bottle3.png
barlow_twins,1,427,NaN,knife,bottle,NaN,bottle3-cat3.png
barlow_twins,1,428,NaN,airplane,bottle,NaN,bottle3-chair3.png
barlow_twins,1,429,NaN,airplane,bottle,NaN,bottle3-knife3.png
barlow_twins,1,430,NaN,knife,bottle,NaN,bottle4-airplane1.png
barlow_twins,1,431,NaN,airplane,bottle,NaN,bottle4-bicycle1.png
barlow_twins,1,432,NaN,airplane,bottle,NaN,bottle4-car3.png
barlow_twins,1,433,NaN,airplane,bottle,NaN,bottle4-dog2.png
barlow_twins,1,434,NaN,airplane,bottle,NaN,bottle4-oven2.png
barlow_twins,1,435,NaN,airplane,bottle,NaN,bottle4-truck1.png
barlow_twins,1,436,NaN,airplane,bottle,NaN,bottle5-airplane1.png
barlow_twins,1,437,NaN,airplane,bottle,NaN,bottle5-bird3.png
barlow_twins,1,438,NaN,airplane,bottle,NaN,bottle5-boat1.png
barlow_twins,1,439,NaN,clock,bottle,NaN,bottle5-cat1.png
barlow_twins,1,440,NaN,airplane,bottle,NaN,bottle5-chair1.png
barlow_twins,1,441,NaN,bicycle,bottle,NaN,bottle5-clock3.png
barlow_twins,1,442,NaN,airplane,bottle,NaN,bottle5-elephant1.png
barlow_twins,1,443,NaN,airplane,bottle,NaN,bottle5-keyboard2.png
barlow_twins,1,444,NaN,airplane,bottle,NaN,bottle5-knife1.png
barlow_twins,1,445,NaN,airplane,bottle,NaN,bottle5-oven2.png
barlow_twins,1,446,NaN,airplane,bottle,NaN,bottle5-truck1.png
barlow_twins,1,447,NaN,airplane,bottle,NaN,bottle6-airplane1.png
barlow_twins,1,448,NaN,bicycle,bottle,NaN,bottle6-bear2.png
barlow_twins,1,449,NaN,car,bottle,NaN,bottle6-bicycle3.png
barlow_twins,1,450,NaN,clock,bottle,NaN,bottle6-bird1.png
barlow_twins,1,451,NaN,airplane,bottle,NaN,bottle6-boat3.png
barlow_twins,1,452,NaN,airplane,bottle,NaN,bottle6-bottle3.png
barlow_twins,1,453,NaN,airplane,bottle,NaN,bottle6-chair2.png
barlow_twins,1,454,NaN,clock,bottle,NaN,bottle6-dog3.png
barlow_twins,1,455,NaN,airplane,bottle,NaN,bottle6-knife3.png
barlow_twins,1,456,NaN,airplane,bottle,NaN,bottle6-oven3.png
barlow_twins,1,457,NaN,airplane,bottle,NaN,bottle7-airplane3.png
barlow_twins,1,458,NaN,airplane,bottle,NaN,bottle7-bear1.png
barlow_twins,1,459,NaN,airplane,bottle,NaN,bottle7-boat3.png
barlow_twins,1,460,NaN,knife,bottle,NaN,bottle7-cat2.png
barlow_twins,1,461,NaN,airplane,bottle,NaN,bottle7-clock1.png
barlow_twins,1,462,NaN,oven,bottle,NaN,bottle7-elephant2.png
barlow_twins,1,463,NaN,clock,bottle,NaN,bottle7-keyboard2.png
barlow_twins,1,464,NaN,airplane,bottle,NaN,bottle7-oven2.png
barlow_twins,1,465,NaN,airplane,bottle,NaN,bottle7-truck2.png
barlow_twins,1,466,NaN,airplane,bottle,NaN,bottle8-bicycle1.png
barlow_twins,1,467,NaN,clock,bottle,NaN,bottle8-bird1.png
barlow_twins,1,468,NaN,airplane,bottle,NaN,bottle8-bottle3.png
barlow_twins,1,469,NaN,airplane,bottle,NaN,bottle8-dog2.png
barlow_twins,1,470,NaN,oven,bottle,NaN,bottle8-elephant3.png
barlow_twins,1,471,NaN,airplane,bottle,NaN,bottle8-keyboard3.png
barlow_twins,1,472,NaN,airplane,bottle,NaN,bottle8-knife1.png
barlow_twins,1,473,NaN,airplane,bottle,NaN,bottle9-bicycle1.png
barlow_twins,1,474,NaN,airplane,bottle,NaN,bottle9-bottle1.png
barlow_twins,1,475,NaN,airplane,bottle,NaN,bottle9-car3.png
barlow_twins,1,476,NaN,car,bottle,NaN,bottle9-cat2.png
barlow_twins,1,477,NaN,oven,bottle,NaN,bottle9-elephant2.png
barlow_twins,1,478,NaN,airplane,bottle,NaN,bottle9-keyboard1.png
barlow_twins,1,479,NaN,airplane,bottle,NaN,bottle9-oven2.png
barlow_twins,1,480,NaN,airplane,bottle,NaN,bottle9-truck1.png
barlow_twins,1,481,NaN,airplane,car,NaN,car1-airplane1.png
barlow_twins,1,482,NaN,airplane,car,NaN,car1-car2.png
barlow_twins,1,483,NaN,airplane,car,NaN,car1-chair3.png
barlow_twins,1,484,NaN,airplane,car,NaN,car1-clock2.png
barlow_twins,1,485,NaN,bear,car,NaN,car1-dog2.png
barlow_twins,1,486,NaN,clock,car,NaN,car1-keyboard2.png
barlow_twins,1,487,NaN,airplane,car,NaN,car1-oven3.png
barlow_twins,1,488,NaN,keyboard,car,NaN,car10-bicycle2.png
barlow_twins,1,489,NaN,airplane,car,NaN,car10-bottle3.png
barlow_twins,1,490,NaN,airplane,car,NaN,car10-car1.png
barlow_twins,1,491,NaN,car,car,NaN,car10-chair1.png
barlow_twins,1,492,NaN,bicycle,car,NaN,car10-dog1.png
barlow_twins,1,493,NaN,oven,car,NaN,car10-elephant2.png
barlow_twins,1,494,NaN,bicycle,car,NaN,car10-keyboard2.png
barlow_twins,1,495,NaN,car,car,NaN,car2-bird3.png
barlow_twins,1,496,NaN,airplane,car,NaN,car2-car3.png
barlow_twins,1,497,NaN,oven,car,NaN,car2-cat3.png
barlow_twins,1,498,NaN,airplane,car,NaN,car2-chair1.png
barlow_twins,1,499,NaN,airplane,car,NaN,car2-knife3.png
barlow_twins,1,500,NaN,airplane,car,NaN,car3-airplane3.png
barlow_twins,1,501,NaN,bicycle,car,NaN,car3-bird2.png
barlow_twins,1,502,NaN,airplane,car,NaN,car3-boat1.png
barlow_twins,1,503,NaN,airplane,car,NaN,car3-bottle3.png
barlow_twins,1,504,NaN,bicycle,car,NaN,car3-dog2.png
barlow_twins,1,505,NaN,oven,car,NaN,car3-elephant3.png
barlow_twins,1,506,NaN,airplane,car,NaN,car3-oven3.png
barlow_twins,1,507,NaN,airplane,car,NaN,car3-truck1.png
barlow_twins,1,508,NaN,oven,car,NaN,car4-bear3.png
barlow_twins,1,509,NaN,keyboard,car,NaN,car4-bicycle3.png
barlow_twins,1,510,NaN,bicycle,car,NaN,car4-bird1.png
barlow_twins,1,511,NaN,airplane,car,NaN,car4-boat1.png
barlow_twins,1,512,NaN,airplane,car,NaN,car4-bottle1.png
barlow_twins,1,513,NaN,airplane,car,NaN,car4-car2.png
barlow_twins,1,514,NaN,knife,car,NaN,car4-cat3.png
barlow_twins,1,515,NaN,airplane,car,NaN,car4-clock1.png
barlow_twins,1,516,NaN,oven,car,NaN,car4-elephant3.png
barlow_twins,1,517,NaN,airplane,car,NaN,car4-oven2.png
barlow_twins,1,518,NaN,car,car,NaN,car5-airplane3.png
barlow_twins,1,519,NaN,oven,car,NaN,car5-bear3.png
barlow_twins,1,520,NaN,airplane,car,NaN,car5-bottle1.png
barlow_twins,1,521,NaN,oven,car,NaN,car5-cat1.png
barlow_twins,1,522,NaN,airplane,car,NaN,car5-keyboard3.png
barlow_twins,1,523,NaN,airplane,car,NaN,car5-knife2.png
barlow_twins,1,524,NaN,airplane,car,NaN,car5-oven2.png
barlow_twins,1,525,NaN,airplane,car,NaN,car5-truck3.png
barlow_twins,1,526,NaN,airplane,car,NaN,car6-bear1.png
barlow_twins,1,527,NaN,keyboard,car,NaN,car6-bicycle3.png
barlow_twins,1,528,NaN,airplane,car,NaN,car6-boat1.png
barlow_twins,1,529,NaN,airplane,car,NaN,car6-bottle1.png
barlow_twins,1,530,NaN,airplane,car,NaN,car6-chair3.png
barlow_twins,1,531,NaN,oven,car,NaN,car6-elephant3.png
barlow_twins,1,532,NaN,airplane,car,NaN,car6-knife1.png
barlow_twins,1,533,NaN,airplane,car,NaN,car6-truck3.png
barlow_twins,1,534,NaN,car,car,NaN,car7-airplane2.png
barlow_twins,1,535,NaN,knife,car,NaN,car7-bear1.png
barlow_twins,1,536,NaN,car,car,NaN,car7-bird3.png
barlow_twins,1,537,NaN,car,car,NaN,car7-boat3.png
barlow_twins,1,538,NaN,airplane,car,NaN,car7-car1.png
barlow_twins,1,539,NaN,airplane,car,NaN,car7-clock1.png
barlow_twins,1,540,NaN,car,car,NaN,car7-dog3.png
barlow_twins,1,541,NaN,oven,car,NaN,car7-elephant3.png
barlow_twins,1,542,NaN,chair,car,NaN,car7-keyboard3.png
barlow_twins,1,543,NaN,airplane,car,NaN,car7-oven2.png
barlow_twins,1,544,NaN,clock,car,NaN,car8-airplane3.png
barlow_twins,1,545,NaN,airplane,car,NaN,car8-bear1.png
barlow_twins,1,546,NaN,car,car,NaN,car8-bicycle2.png
barlow_twins,1,547,NaN,airplane,car,NaN,car8-boat3.png
barlow_twins,1,548,NaN,bear,car,NaN,car8-cat1.png
barlow_twins,1,549,NaN,airplane,car,NaN,car8-chair1.png
barlow_twins,1,550,NaN,airplane,car,NaN,car8-clock2.png
barlow_twins,1,551,NaN,bicycle,car,NaN,car8-dog1.png
barlow_twins,1,552,NaN,airplane,car,NaN,car8-knife2.png
barlow_twins,1,553,NaN,airplane,car,NaN,car8-truck3.png
barlow_twins,1,554,NaN,airplane,car,NaN,car9-bicycle2.png
barlow_twins,1,555,NaN,bicycle,car,NaN,car9-bird1.png
barlow_twins,1,556,NaN,knife,car,NaN,car9-cat1.png
barlow_twins,1,557,NaN,airplane,car,NaN,car9-clock2.png
barlow_twins,1,558,NaN,bicycle,car,NaN,car9-keyboard2.png
barlow_twins,1,559,NaN,airplane,car,NaN,car9-knife1.png
barlow_twins,1,560,NaN,bicycle,car,NaN,car9-truck3.png
barlow_twins,1,561,NaN,airplane,cat,NaN,cat1-airplane1.png
barlow_twins,1,562,NaN,bicycle,cat,NaN,cat1-bird1.png
barlow_twins,1,563,NaN,airplane,cat,NaN,cat1-boat1.png
barlow_twins,1,564,NaN,airplane,cat,NaN,cat1-car2.png
barlow_twins,1,565,NaN,knife,cat,NaN,cat1-cat3.png
barlow_twins,1,566,NaN,airplane,cat,NaN,cat1-chair2.png
barlow_twins,1,567,NaN,bicycle,cat,NaN,cat1-dog1.png
barlow_twins,1,568,NaN,bicycle,cat,NaN,cat1-keyboard3.png
barlow_twins,1,569,NaN,airplane,cat,NaN,cat1-oven1.png
barlow_twins,1,570,NaN,airplane,cat,NaN,cat10-airplane3.png
barlow_twins,1,571,NaN,airplane,cat,NaN,cat10-bear1.png
barlow_twins,1,572,NaN,clock,cat,NaN,cat10-bicycle1.png
barlow_twins,1,573,NaN,bicycle,cat,NaN,cat10-bird2.png
barlow_twins,1,574,NaN,airplane,cat,NaN,cat10-bottle1.png
barlow_twins,1,575,NaN,airplane,cat,NaN,cat10-clock1.png
barlow_twins,1,576,NaN,airplane,cat,NaN,cat10-elephant3.png
barlow_twins,1,577,NaN,airplane,cat,NaN,cat10-keyboard1.png
barlow_twins,1,578,NaN,airplane,cat,NaN,cat10-oven2.png
barlow_twins,1,579,NaN,airplane,cat,NaN,cat2-boat2.png
barlow_twins,1,580,NaN,airplane,cat,NaN,cat2-bottle3.png
barlow_twins,1,581,NaN,airplane,cat,NaN,cat2-car3.png
barlow_twins,1,582,NaN,bicycle,cat,NaN,cat2-cat1.png
barlow_twins,1,583,NaN,oven,cat,NaN,cat2-elephant1.png
barlow_twins,1,584,NaN,airplane,cat,NaN,cat2-knife3.png
barlow_twins,1,585,NaN,airplane,cat,NaN,cat2-truck3.png
barlow_twins,1,586,NaN,oven,cat,NaN,cat3-bear2.png
barlow_twins,1,587,NaN,airplane,cat,NaN,cat3-bicycle1.png
barlow_twins,1,588,NaN,bicycle,cat,NaN,cat3-cat1.png
barlow_twins,1,589,NaN,oven,cat,NaN,cat3-elephant2.png
barlow_twins,1,590,NaN,airplane,cat,NaN,cat3-oven2.png
barlow_twins,1,591,NaN,airplane,cat,NaN,cat3-truck3.png
barlow_twins,1,592,NaN,knife,cat,NaN,cat4-airplane1.png
barlow_twins,1,593,NaN,bicycle,cat,NaN,cat4-bird2.png
barlow_twins,1,594,NaN,airplane,cat,NaN,cat4-car2.png
barlow_twins,1,595,NaN,knife,cat,NaN,cat4-cat3.png
barlow_twins,1,596,NaN,airplane,cat,NaN,cat4-chair2.png
barlow_twins,1,597,NaN,airplane,cat,NaN,cat4-clock2.png
barlow_twins,1,598,NaN,car,cat,NaN,cat4-dog3.png
barlow_twins,1,599,NaN,bicycle,cat,NaN,cat4-keyboard2.png
barlow_twins,1,600,NaN,airplane,cat,NaN,cat4-knife1.png
barlow_twins,1,601,NaN,airplane,cat,NaN,cat4-oven1.png
barlow_twins,1,602,NaN,airplane,cat,NaN,cat4-truck3.png
barlow_twins,1,603,NaN,airplane,cat,NaN,cat5-airplane2.png
barlow_twins,1,604,NaN,bicycle,cat,NaN,cat5-bear2.png
barlow_twins,1,605,NaN,car,cat,NaN,cat5-bicycle3.png
barlow_twins,1,606,NaN,airplane,cat,NaN,cat5-boat1.png
barlow_twins,1,607,NaN,airplane,cat,NaN,cat5-bottle1.png
barlow_twins,1,608,NaN,airplane,cat,NaN,cat5-car2.png
barlow_twins,1,609,NaN,airplane,cat,NaN,cat5-chair3.png
barlow_twins,1,610,NaN,bicycle,cat,NaN,cat5-dog3.png
barlow_twins,1,611,NaN,oven,cat,NaN,cat5-elephant2.png
barlow_twins,1,612,NaN,bicycle,cat,NaN,cat5-keyboard3.png
barlow_twins,1,613,NaN,airplane,cat,NaN,cat5-knife2.png
barlow_twins,1,614,NaN,airplane,cat,NaN,cat6-bear1.png
barlow_twins,1,615,NaN,airplane,cat,NaN,cat6-chair3.png
barlow_twins,1,616,NaN,airplane,cat,NaN,cat6-clock3.png
barlow_twins,1,617,NaN,clock,cat,NaN,cat6-keyboard3.png
barlow_twins,1,618,NaN,airplane,cat,NaN,cat6-oven1.png
barlow_twins,1,619,NaN,airplane,cat,NaN,cat7-airplane2.png
barlow_twins,1,620,NaN,airplane,cat,NaN,cat7-boat3.png
barlow_twins,1,621,NaN,airplane,cat,NaN,cat7-bottle1.png
barlow_twins,1,622,NaN,airplane,cat,NaN,cat7-clock3.png
barlow_twins,1,623,NaN,bicycle,cat,NaN,cat7-dog3.png
barlow_twins,1,624,NaN,airplane,cat,NaN,cat7-elephant1.png
barlow_twins,1,625,NaN,airplane,cat,NaN,cat7-knife2.png
barlow_twins,1,626,NaN,airplane,cat,NaN,cat7-truck2.png
barlow_twins,1,627,NaN,bicycle,cat,NaN,cat8-bear1.png
barlow_twins,1,628,NaN,airplane,cat,NaN,cat8-bicycle3.png
barlow_twins,1,629,NaN,airplane,cat,NaN,cat8-bird2.png
barlow_twins,1,630,NaN,airplane,cat,NaN,cat8-car2.png
barlow_twins,1,631,NaN,airplane,cat,NaN,cat9-bicycle1.png
barlow_twins,1,632,NaN,bicycle,cat,NaN,cat9-bird3.png
barlow_twins,1,633,NaN,airplane,cat,NaN,cat9-boat2.png
barlow_twins,1,634,NaN,airplane,cat,NaN,cat9-bottle2.png
barlow_twins,1,635,NaN,oven,cat,NaN,cat9-cat3.png
barlow_twins,1,636,NaN,airplane,cat,NaN,cat9-chair2.png
barlow_twins,1,637,NaN,airplane,cat,NaN,cat9-clock2.png
barlow_twins,1,638,NaN,bicycle,cat,NaN,cat9-dog2.png
barlow_twins,1,639,NaN,airplane,cat,NaN,cat9-knife2.png
barlow_twins,1,640,NaN,airplane,cat,NaN,cat9-truck1.png
barlow_twins,1,641,NaN,airplane,chair,NaN,chair1-airplane2.png
barlow_twins,1,642,NaN,airplane,chair,NaN,chair1-bear1.png
barlow_twins,1,643,NaN,clock,chair,NaN,chair1-cat3.png
barlow_twins,1,644,NaN,airplane,chair,NaN,chair1-chair1.png
barlow_twins,1,645,NaN,airplane,chair,NaN,chair1-clock2.png
barlow_twins,1,646,NaN,bicycle,chair,NaN,chair1-dog1.png
barlow_twins,1,647,NaN,airplane,chair,NaN,chair1-elephant1.png
barlow_twins,1,648,NaN,airplane,chair,NaN,chair1-oven3.png
barlow_twins,1,649,NaN,airplane,chair,NaN,chair1-truck3.png
barlow_twins,1,650,NaN,car,chair,NaN,chair10-airplane2.png
barlow_twins,1,651,NaN,airplane,chair,NaN,chair10-bicycle1.png
barlow_twins,1,652,NaN,car,chair,NaN,chair10-bird3.png
barlow_twins,1,653,NaN,airplane,chair,NaN,chair10-bottle3.png
barlow_twins,1,654,NaN,airplane,chair,NaN,chair10-car2.png
barlow_twins,1,655,NaN,clock,chair,NaN,chair10-cat1.png
barlow_twins,1,656,NaN,airplane,chair,NaN,chair10-clock1.png
barlow_twins,1,657,NaN,bicycle,chair,NaN,chair10-dog1.png
barlow_twins,1,658,NaN,knife,chair,NaN,chair10-oven1.png
barlow_twins,1,659,NaN,bicycle,chair,NaN,chair2-bear2.png
barlow_twins,1,660,NaN,knife,chair,NaN,chair2-boat1.png
barlow_twins,1,661,NaN,bicycle,chair,NaN,chair2-keyboard2.png
barlow_twins,1,662,NaN,airplane,chair,NaN,chair2-knife1.png
barlow_twins,1,663,NaN,airplane,chair,NaN,chair3-airplane2.png
barlow_twins,1,664,NaN,airplane,chair,NaN,chair3-bicycle3.png
barlow_twins,1,665,NaN,airplane,chair,NaN,chair3-bottle3.png
barlow_twins,1,666,NaN,airplane,chair,NaN,chair3-car3.png
barlow_twins,1,667,NaN,bicycle,chair,NaN,chair3-dog2.png
barlow_twins,1,668,NaN,airplane,chair,NaN,chair3-knife1.png
barlow_twins,1,669,NaN,bicycle,chair,NaN,chair4-bear2.png
barlow_twins,1,670,NaN,bicycle,chair,NaN,chair4-cat2.png
barlow_twins,1,671,NaN,airplane,chair,NaN,chair4-chair3.png
barlow_twins,1,672,NaN,car,chair,NaN,chair4-keyboard2.png
barlow_twins,1,673,NaN,airplane,chair,NaN,chair4-oven2.png
barlow_twins,1,674,NaN,airplane,chair,NaN,chair4-truck2.png
barlow_twins,1,675,NaN,airplane,chair,NaN,chair5-bicycle1.png
barlow_twins,1,676,NaN,bicycle,chair,NaN,chair5-bird1.png
barlow_twins,1,677,NaN,car,chair,NaN,chair5-boat3.png
barlow_twins,1,678,NaN,airplane,chair,NaN,chair5-bottle3.png
barlow_twins,1,679,NaN,airplane,chair,NaN,chair5-car1.png
barlow_twins,1,680,NaN,oven,chair,NaN,chair5-cat3.png
barlow_twins,1,681,NaN,airplane,chair,NaN,chair5-clock2.png
barlow_twins,1,682,NaN,bicycle,chair,NaN,chair5-keyboard2.png
barlow_twins,1,683,NaN,airplane,chair,NaN,chair5-knife3.png
barlow_twins,1,684,NaN,airplane,chair,NaN,chair5-oven2.png
barlow_twins,1,685,NaN,airplane,chair,NaN,chair5-truck3.png
barlow_twins,1,686,NaN,airplane,chair,NaN,chair6-bird2.png
barlow_twins,1,687,NaN,bicycle,chair,NaN,chair6-dog1.png
barlow_twins,1,688,NaN,oven,chair,NaN,chair6-elephant2.png
barlow_twins,1,689,NaN,airplane,chair,NaN,chair6-truck2.png
barlow_twins,1,690,NaN,airplane,chair,NaN,chair7-airplane1.png
barlow_twins,1,691,NaN,bicycle,chair,NaN,chair7-bird1.png
barlow_twins,1,692,NaN,car,chair,NaN,chair7-boat3.png
barlow_twins,1,693,NaN,airplane,chair,NaN,chair7-bottle1.png
barlow_twins,1,694,NaN,airplane,chair,NaN,chair7-car2.png
barlow_twins,1,695,NaN,bicycle,chair,NaN,chair7-cat1.png
barlow_twins,1,696,NaN,airplane,chair,NaN,chair7-chair1.png
barlow_twins,1,697,NaN,bicycle,chair,NaN,chair7-clock3.png
barlow_twins,1,698,NaN,cat,chair,NaN,chair7-elephant1.png
barlow_twins,1,699,NaN,airplane,chair,NaN,chair7-knife2.png
barlow_twins,1,700,NaN,airplane,chair,NaN,chair7-truck3.png
barlow_twins,1,701,NaN,airplane,chair,NaN,chair8-airplane1.png
barlow_twins,1,702,NaN,airplane,chair,NaN,chair8-bear1.png
barlow_twins,1,703,NaN,airplane,chair,NaN,chair8-bicycle3.png
barlow_twins,1,704,NaN,airplane,chair,NaN,chair8-boat1.png
barlow_twins,1,705,NaN,airplane,chair,NaN,chair8-car1.png
barlow_twins,1,706,NaN,airplane,chair,NaN,chair8-chair3.png
barlow_twins,1,707,NaN,airplane,chair,NaN,chair8-clock3.png
barlow_twins,1,708,NaN,airplane,chair,NaN,chair8-elephant1.png
barlow_twins,1,709,NaN,bicycle,chair,NaN,chair8-keyboard3.png
barlow_twins,1,710,NaN,airplane,chair,NaN,chair8-knife2.png
barlow_twins,1,711,NaN,car,chair,NaN,chair8-oven1.png
barlow_twins,1,712,NaN,airplane,chair,NaN,chair9-bear1.png
barlow_twins,1,713,NaN,airplane,chair,NaN,chair9-bicycle3.png
barlow_twins,1,714,NaN,car,chair,NaN,chair9-bird3.png
barlow_twins,1,715,NaN,airplane,chair,NaN,chair9-boat2.png
barlow_twins,1,716,NaN,airplane,chair,NaN,chair9-bottle3.png
barlow_twins,1,717,NaN,airplane,chair,NaN,chair9-chair3.png
barlow_twins,1,718,NaN,bicycle,chair,NaN,chair9-dog2.png
barlow_twins,1,719,NaN,airplane,chair,NaN,chair9-elephant1.png
barlow_twins,1,720,NaN,airplane,chair,NaN,chair9-keyboard2.png
barlow_twins,1,721,NaN,airplane,clock,NaN,clock1-bear1.png
barlow_twins,1,722,NaN,airplane,clock,NaN,clock1-boat3.png
barlow_twins,1,723,NaN,airplane,clock,NaN,clock1-car1.png
barlow_twins,1,724,NaN,clock,clock,NaN,clock1-clock2.png
barlow_twins,1,725,NaN,bear,clock,NaN,clock1-dog2.png
barlow_twins,1,726,NaN,oven,clock,NaN,clock1-elephant2.png
barlow_twins,1,727,NaN,airplane,clock,NaN,clock1-truck3.png
barlow_twins,1,728,NaN,bicycle,clock,NaN,clock10-airplane1.png
barlow_twins,1,729,NaN,airplane,clock,NaN,clock10-bird3.png
barlow_twins,1,730,NaN,airplane,clock,NaN,clock10-boat2.png
barlow_twins,1,731,NaN,airplane,clock,NaN,clock10-bottle1.png
barlow_twins,1,732,NaN,oven,clock,NaN,clock10-cat1.png
barlow_twins,1,733,NaN,bicycle,clock,NaN,clock10-clock3.png
barlow_twins,1,734,NaN,oven,clock,NaN,clock10-dog3.png
barlow_twins,1,735,NaN,airplane,clock,NaN,clock10-knife3.png
barlow_twins,1,736,NaN,airplane,clock,NaN,clock10-oven2.png
barlow_twins,1,737,NaN,airplane,clock,NaN,clock10-truck2.png
barlow_twins,1,738,NaN,airplane,clock,NaN,clock2-bear2.png
barlow_twins,1,739,NaN,airplane,clock,NaN,clock2-bicycle1.png
barlow_twins,1,740,NaN,airplane,clock,NaN,clock2-bottle3.png
barlow_twins,1,741,NaN,bicycle,clock,NaN,clock2-clock3.png
barlow_twins,1,742,NaN,bicycle,clock,NaN,clock2-dog1.png
barlow_twins,1,743,NaN,airplane,clock,NaN,clock2-elephant2.png
barlow_twins,1,744,NaN,airplane,clock,NaN,clock2-knife1.png
barlow_twins,1,745,NaN,oven,clock,NaN,clock3-bear3.png
barlow_twins,1,746,NaN,keyboard,clock,NaN,clock3-bicycle2.png
barlow_twins,1,747,NaN,bicycle,clock,NaN,clock3-bird1.png
barlow_twins,1,748,NaN,airplane,clock,NaN,clock3-car2.png
barlow_twins,1,749,NaN,car,clock,NaN,clock3-cat1.png
barlow_twins,1,750,NaN,airplane,clock,NaN,clock3-dog2.png
barlow_twins,1,751,NaN,oven,clock,NaN,clock3-elephant3.png
barlow_twins,1,752,NaN,bicycle,clock,NaN,clock3-keyboard3.png
barlow_twins,1,753,NaN,bicycle,clock,NaN,clock4-airplane1.png
barlow_twins,1,754,NaN,airplane,clock,NaN,clock4-bird3.png
barlow_twins,1,755,NaN,airplane,clock,NaN,clock4-boat3.png
barlow_twins,1,756,NaN,airplane,clock,NaN,clock4-bottle3.png
barlow_twins,1,757,NaN,airplane,clock,NaN,clock4-car2.png
barlow_twins,1,758,NaN,airplane,clock,NaN,clock4-chair1.png
barlow_twins,1,759,NaN,oven,clock,NaN,clock4-elephant2.png
barlow_twins,1,760,NaN,airplane,clock,NaN,clock4-knife1.png
barlow_twins,1,761,NaN,airplane,clock,NaN,clock4-oven1.png
barlow_twins,1,762,NaN,bicycle,clock,NaN,clock5-airplane1.png
barlow_twins,1,763,NaN,keyboard,clock,NaN,clock5-bicycle1.png
barlow_twins,1,764,NaN,bicycle,clock,NaN,clock5-chair3.png
barlow_twins,1,765,NaN,airplane,clock,NaN,clock5-clock2.png
barlow_twins,1,766,NaN,cat,clock,NaN,clock5-elephant2.png
barlow_twins,1,767,NaN,bicycle,clock,NaN,clock5-keyboard1.png
barlow_twins,1,768,NaN,airplane,clock,NaN,clock5-oven1.png
barlow_twins,1,769,NaN,bicycle,clock,NaN,clock6-bicycle1.png
barlow_twins,1,770,NaN,bicycle,clock,NaN,clock6-bird3.png
barlow_twins,1,771,NaN,airplane,clock,NaN,clock6-bottle1.png
barlow_twins,1,772,NaN,airplane,clock,NaN,clock6-car2.png
barlow_twins,1,773,NaN,bicycle,clock,NaN,clock6-chair3.png
barlow_twins,1,774,NaN,airplane,clock,NaN,clock6-clock2.png
barlow_twins,1,775,NaN,airplane,clock,NaN,clock6-knife2.png
barlow_twins,1,776,NaN,car,clock,NaN,clock6-oven1.png
barlow_twins,1,777,NaN,airplane,clock,NaN,clock6-truck3.png
barlow_twins,1,778,NaN,bicycle,clock,NaN,clock7-bear2.png
barlow_twins,1,779,NaN,airplane,clock,NaN,clock7-bicycle1.png
barlow_twins,1,780,NaN,airplane,clock,NaN,clock7-boat3.png
barlow_twins,1,781,NaN,airplane,clock,NaN,clock7-bottle2.png
barlow_twins,1,782,NaN,airplane,clock,NaN,clock7-car1.png
barlow_twins,1,783,NaN,bicycle,clock,NaN,clock7-cat2.png
barlow_twins,1,784,NaN,bicycle,clock,NaN,clock7-dog2.png
barlow_twins,1,785,NaN,bicycle,clock,NaN,clock7-keyboard2.png
barlow_twins,1,786,NaN,airplane,clock,NaN,clock7-truck3.png
barlow_twins,1,787,NaN,airplane,clock,NaN,clock8-airplane2.png
barlow_twins,1,788,NaN,airplane,clock,NaN,clock8-bear2.png
barlow_twins,1,789,NaN,airplane,clock,NaN,clock8-boat1.png
barlow_twins,1,790,NaN,knife,clock,NaN,clock8-cat1.png
barlow_twins,1,791,NaN,airplane,clock,NaN,clock8-chair2.png
barlow_twins,1,792,NaN,airplane,clock,NaN,clock8-keyboard1.png
barlow_twins,1,793,NaN,airplane,clock,NaN,clock8-knife1.png
barlow_twins,1,794,NaN,airplane,clock,NaN,clock8-oven3.png
barlow_twins,1,795,NaN,airplane,clock,NaN,clock8-truck2.png
barlow_twins,1,796,NaN,bicycle,clock,NaN,clock9-airplane1.png
barlow_twins,1,797,NaN,bicycle,clock,NaN,clock9-bird2.png
barlow_twins,1,798,NaN,bicycle,clock,NaN,clock9-cat1.png
barlow_twins,1,799,NaN,bicycle,clock,NaN,clock9-chair3.png
barlow_twins,1,800,NaN,bicycle,clock,NaN,clock9-keyboard2.png
barlow_twins,1,801,NaN,airplane,dog,NaN,dog1-airplane3.png
barlow_twins,1,802,NaN,knife,dog,NaN,dog1-bear1.png
barlow_twins,1,803,NaN,bicycle,dog,NaN,dog1-bird1.png
barlow_twins,1,804,NaN,airplane,dog,NaN,dog1-boat3.png
barlow_twins,1,805,NaN,airplane,dog,NaN,dog1-car2.png
barlow_twins,1,806,NaN,bicycle,dog,NaN,dog1-cat3.png
barlow_twins,1,807,NaN,airplane,dog,NaN,dog1-chair1.png
barlow_twins,1,808,NaN,airplane,dog,NaN,dog1-dog2.png
barlow_twins,1,809,NaN,airplane,dog,NaN,dog1-knife3.png
barlow_twins,1,810,NaN,knife,dog,NaN,dog10-airplane1.png
barlow_twins,1,811,NaN,airplane,dog,NaN,dog10-bicycle1.png
barlow_twins,1,812,NaN,airplane,dog,NaN,dog10-bottle1.png
barlow_twins,1,813,NaN,airplane,dog,NaN,dog10-car3.png
barlow_twins,1,814,NaN,airplane,dog,NaN,dog10-clock1.png
barlow_twins,1,815,NaN,bicycle,dog,NaN,dog10-dog1.png
barlow_twins,1,816,NaN,cat,dog,NaN,dog10-elephant1.png
barlow_twins,1,817,NaN,bicycle,dog,NaN,dog10-keyboard2.png
barlow_twins,1,818,NaN,airplane,dog,NaN,dog10-oven2.png
barlow_twins,1,819,NaN,airplane,dog,NaN,dog10-truck2.png
barlow_twins,1,820,NaN,airplane,dog,NaN,dog2-airplane2.png
barlow_twins,1,821,NaN,car,dog,NaN,dog2-bicycle2.png
barlow_twins,1,822,NaN,airplane,dog,NaN,dog2-bottle2.png
barlow_twins,1,823,NaN,bicycle,dog,NaN,dog2-cat1.png
barlow_twins,1,824,NaN,oven,dog,NaN,dog2-dog3.png
barlow_twins,1,825,NaN,airplane,dog,NaN,dog2-knife3.png
barlow_twins,1,826,NaN,oven,dog,NaN,dog3-bear3.png
barlow_twins,1,827,NaN,airplane,dog,NaN,dog3-bird2.png
barlow_twins,1,828,NaN,airplane,dog,NaN,dog3-boat1.png
barlow_twins,1,829,NaN,airplane,dog,NaN,dog3-clock1.png
barlow_twins,1,830,NaN,bicycle,dog,NaN,dog3-dog1.png
barlow_twins,1,831,NaN,oven,dog,NaN,dog3-elephant2.png
barlow_twins,1,832,NaN,airplane,dog,NaN,dog3-keyboard1.png
barlow_twins,1,833,NaN,airplane,dog,NaN,dog3-knife3.png
barlow_twins,1,834,NaN,airplane,dog,NaN,dog3-truck2.png
barlow_twins,1,835,NaN,airplane,dog,NaN,dog4-airplane3.png
barlow_twins,1,836,NaN,airplane,dog,NaN,dog4-bicycle1.png
barlow_twins,1,837,NaN,clock,dog,NaN,dog4-bird1.png
barlow_twins,1,838,NaN,airplane,dog,NaN,dog4-bottle2.png
barlow_twins,1,839,NaN,oven,dog,NaN,dog4-cat3.png
barlow_twins,1,840,NaN,airplane,dog,NaN,dog4-chair1.png
barlow_twins,1,841,NaN,airplane,dog,NaN,dog4-clock1.png
barlow_twins,1,842,NaN,oven,dog,NaN,dog4-elephant2.png
barlow_twins,1,843,NaN,clock,dog,NaN,dog4-keyboard2.png
barlow_twins,1,844,NaN,clock,dog,NaN,dog4-oven1.png
barlow_twins,1,845,NaN,airplane,dog,NaN,dog4-truck2.png
barlow_twins,1,846,NaN,oven,dog,NaN,dog5-bear3.png
barlow_twins,1,847,NaN,airplane,dog,NaN,dog5-boat3.png
barlow_twins,1,848,NaN,airplane,dog,NaN,dog5-car3.png
barlow_twins,1,849,NaN,airplane,dog,NaN,dog5-elephant1.png
barlow_twins,1,850,NaN,airplane,dog,NaN,dog5-knife2.png
barlow_twins,1,851,NaN,airplane,dog,NaN,dog5-oven1.png
barlow_twins,1,852,NaN,airplane,dog,NaN,dog5-truck2.png
barlow_twins,1,853,NaN,car,dog,NaN,dog6-bicycle1.png
barlow_twins,1,854,NaN,clock,dog,NaN,dog6-bird1.png
barlow_twins,1,855,NaN,bicycle,dog,NaN,dog6-cat1.png
barlow_twins,1,856,NaN,airplane,dog,NaN,dog6-clock1.png
barlow_twins,1,857,NaN,oven,dog,NaN,dog6-elephant2.png
barlow_twins,1,858,NaN,airplane,dog,NaN,dog6-truck2.png
barlow_twins,1,859,NaN,bicycle,dog,NaN,dog7-bird3.png
barlow_twins,1,860,NaN,airplane,dog,NaN,dog7-car2.png
barlow_twins,1,861,NaN,airplane,dog,NaN,dog7-chair2.png
barlow_twins,1,862,NaN,airplane,dog,NaN,dog7-keyboard3.png
barlow_twins,1,863,NaN,airplane,dog,NaN,dog7-knife3.png
barlow_twins,1,864,NaN,airplane,dog,NaN,dog7-oven2.png
barlow_twins,1,865,NaN,oven,dog,NaN,dog8-bear3.png
barlow_twins,1,866,NaN,airplane,dog,NaN,dog8-boat3.png
barlow_twins,1,867,NaN,airplane,dog,NaN,dog8-bottle2.png
barlow_twins,1,868,NaN,airplane,dog,NaN,dog8-chair3.png
barlow_twins,1,869,NaN,airplane,dog,NaN,dog8-clock2.png
barlow_twins,1,870,NaN,clock,dog,NaN,dog8-dog3.png
barlow_twins,1,871,NaN,car,dog,NaN,dog8-keyboard3.png
barlow_twins,1,872,NaN,airplane,dog,NaN,dog8-oven3.png
barlow_twins,1,873,NaN,airplane,dog,NaN,dog9-airplane3.png
barlow_twins,1,874,NaN,oven,dog,NaN,dog9-bear3.png
barlow_twins,1,875,NaN,keyboard,dog,NaN,dog9-bicycle3.png
barlow_twins,1,876,NaN,airplane,dog,NaN,dog9-boat1.png
barlow_twins,1,877,NaN,airplane,dog,NaN,dog9-bottle1.png
barlow_twins,1,878,NaN,airplane,dog,NaN,dog9-car1.png
barlow_twins,1,879,NaN,knife,dog,NaN,dog9-cat1.png
barlow_twins,1,880,NaN,airplane,dog,NaN,dog9-chair2.png
barlow_twins,1,881,NaN,airplane,elephant,NaN,elephant1-airplane2.png
barlow_twins,1,882,NaN,oven,elephant,NaN,elephant1-bear2.png
barlow_twins,1,883,NaN,airplane,elephant,NaN,elephant1-boat2.png
barlow_twins,1,884,NaN,airplane,elephant,NaN,elephant1-bottle1.png
barlow_twins,1,885,NaN,airplane,elephant,NaN,elephant1-car3.png
barlow_twins,1,886,NaN,airplane,elephant,NaN,elephant1-chair1.png
barlow_twins,1,887,NaN,clock,elephant,NaN,elephant1-dog2.png
barlow_twins,1,888,NaN,airplane,elephant,NaN,elephant1-keyboard3.png
barlow_twins,1,889,NaN,airplane,elephant,NaN,elephant1-oven2.png
barlow_twins,1,890,NaN,bicycle,elephant,NaN,elephant10-bear1.png
barlow_twins,1,891,NaN,oven,elephant,NaN,elephant10-elephant1.png
barlow_twins,1,892,NaN,airplane,elephant,NaN,elephant10-keyboard1.png
barlow_twins,1,893,NaN,airplane,elephant,NaN,elephant10-knife3.png
barlow_twins,1,894,NaN,airplane,elephant,NaN,elephant2-airplane3.png
barlow_twins,1,895,NaN,oven,elephant,NaN,elephant2-bear3.png
barlow_twins,1,896,NaN,clock,elephant,NaN,elephant2-bird1.png
barlow_twins,1,897,NaN,airplane,elephant,NaN,elephant2-boat1.png
barlow_twins,1,898,NaN,airplane,elephant,NaN,elephant2-bottle3.png
barlow_twins,1,899,NaN,clock,elephant,NaN,elephant2-cat1.png
barlow_twins,1,900,NaN,airplane,elephant,NaN,elephant2-clock1.png
barlow_twins,1,901,NaN,oven,elephant,NaN,elephant2-elephant3.png
barlow_twins,1,902,NaN,airplane,elephant,NaN,elephant2-keyboard3.png
barlow_twins,1,903,NaN,airplane,elephant,NaN,elephant2-truck2.png
barlow_twins,1,904,NaN,bicycle,elephant,NaN,elephant3-cat2.png
barlow_twins,1,905,NaN,airplane,elephant,NaN,elephant3-chair1.png
barlow_twins,1,906,NaN,bicycle,elephant,NaN,elephant3-keyboard2.png
barlow_twins,1,907,NaN,airplane,elephant,NaN,elephant3-knife1.png
barlow_twins,1,908,NaN,elephant,elephant,NaN,elephant3-oven1.png
barlow_twins,1,909,NaN,airplane,elephant,NaN,elephant3-truck1.png
barlow_twins,1,910,NaN,airplane,elephant,NaN,elephant4-bicycle2.png
barlow_twins,1,911,NaN,clock,elephant,NaN,elephant4-bird1.png
barlow_twins,1,912,NaN,airplane,elephant,NaN,elephant4-boat3.png
barlow_twins,1,913,NaN,airplane,elephant,NaN,elephant4-car3.png
barlow_twins,1,914,NaN,airplane,elephant,NaN,elephant4-chair3.png
barlow_twins,1,915,NaN,airplane,elephant,NaN,elephant4-clock3.png
barlow_twins,1,916,NaN,elephant,elephant,NaN,elephant4-oven1.png
barlow_twins,1,917,NaN,bicycle,elephant,NaN,elephant5-bear2.png
barlow_twins,1,918,NaN,car,elephant,NaN,elephant5-bicycle3.png
barlow_twins,1,919,NaN,airplane,elephant,NaN,elephant5-bottle2.png
barlow_twins,1,920,NaN,airplane,elephant,NaN,elephant5-car1.png
barlow_twins,1,921,NaN,airplane,elephant,NaN,elephant5-chair3.png
barlow_twins,1,922,NaN,oven,elephant,NaN,elephant5-elephant1.png
barlow_twins,1,923,NaN,airplane,elephant,NaN,elephant5-truck1.png
barlow_twins,1,924,NaN,airplane,elephant,NaN,elephant6-bicycle1.png
barlow_twins,1,925,NaN,bicycle,elephant,NaN,elephant6-bird1.png
barlow_twins,1,926,NaN,airplane,elephant,NaN,elephant6-bottle2.png
barlow_twins,1,927,NaN,airplane,elephant,NaN,elephant6-car3.png
barlow_twins,1,928,NaN,bicycle,elephant,NaN,elephant6-cat2.png
barlow_twins,1,929,NaN,bicycle,elephant,NaN,elephant6-dog2.png
barlow_twins,1,930,NaN,airplane,elephant,NaN,elephant6-knife2.png
barlow_twins,1,931,NaN,airplane,elephant,NaN,elephant6-oven1.png
barlow_twins,1,932,NaN,airplane,elephant,NaN,elephant6-truck3.png
barlow_twins,1,933,NaN,airplane,elephant,NaN,elephant7-airplane3.png
barlow_twins,1,934,NaN,oven,elephant,NaN,elephant7-bear3.png
barlow_twins,1,935,NaN,bicycle,elephant,NaN,elephant7-bird1.png
barlow_twins,1,936,NaN,airplane,elephant,NaN,elephant7-bottle3.png
barlow_twins,1,937,NaN,airplane,elephant,NaN,elephant7-car3.png
barlow_twins,1,938,NaN,bicycle,elephant,NaN,elephant7-cat1.png
barlow_twins,1,939,NaN,airplane,elephant,NaN,elephant7-clock2.png
barlow_twins,1,940,NaN,bicycle,elephant,NaN,elephant7-dog1.png
barlow_twins,1,941,NaN,car,elephant,NaN,elephant7-keyboard3.png
barlow_twins,1,942,NaN,airplane,elephant,NaN,elephant7-knife2.png
barlow_twins,1,943,NaN,airplane,elephant,NaN,elephant8-airplane3.png
barlow_twins,1,944,NaN,car,elephant,NaN,elephant8-bicycle3.png
barlow_twins,1,945,NaN,airplane,elephant,NaN,elephant8-bird2.png
barlow_twins,1,946,NaN,airplane,elephant,NaN,elephant8-boat2.png
barlow_twins,1,947,NaN,bicycle,elephant,NaN,elephant8-cat1.png
barlow_twins,1,948,NaN,airplane,elephant,NaN,elephant8-clock2.png
barlow_twins,1,949,NaN,clock,elephant,NaN,elephant8-dog1.png
barlow_twins,1,950,NaN,airplane,elephant,NaN,elephant8-elephant1.png
barlow_twins,1,951,NaN,airplane,elephant,NaN,elephant8-knife2.png
barlow_twins,1,952,NaN,airplane,elephant,NaN,elephant8-oven3.png
barlow_twins,1,953,NaN,airplane,elephant,NaN,elephant8-truck3.png
barlow_twins,1,954,NaN,airplane,elephant,NaN,elephant9-airplane2.png
barlow_twins,1,955,NaN,car,elephant,NaN,elephant9-bicycle2.png
barlow_twins,1,956,NaN,airplane,elephant,NaN,elephant9-boat3.png
barlow_twins,1,957,NaN,keyboard,elephant,NaN,elephant9-chair2.png
barlow_twins,1,958,NaN,airplane,elephant,NaN,elephant9-clock3.png
barlow_twins,1,959,NaN,clock,elephant,NaN,elephant9-dog3.png
barlow_twins,1,960,NaN,oven,elephant,NaN,elephant9-elephant3.png
barlow_twins,1,961,NaN,airplane,keyboard,NaN,keyboard1-airplane2.png
barlow_twins,1,962,NaN,oven,keyboard,NaN,keyboard1-bear2.png
barlow_twins,1,963,NaN,bicycle,keyboard,NaN,keyboard1-bird2.png
barlow_twins,1,964,NaN,airplane,keyboard,NaN,keyboard1-car3.png
barlow_twins,1,965,NaN,keyboard,keyboard,NaN,keyboard1-chair2.png
barlow_twins,1,966,NaN,airplane,keyboard,NaN,keyboard1-clock1.png
barlow_twins,1,967,NaN,oven,keyboard,NaN,keyboard1-dog3.png
barlow_twins,1,968,NaN,oven,keyboard,NaN,keyboard1-elephant3.png
barlow_twins,1,969,NaN,car,keyboard,NaN,keyboard10-airplane3.png
barlow_twins,1,970,NaN,airplane,keyboard,NaN,keyboard10-boat2.png
barlow_twins,1,971,NaN,airplane,keyboard,NaN,keyboard10-car1.png
barlow_twins,1,972,NaN,bicycle,keyboard,NaN,keyboard10-keyboard1.png
barlow_twins,1,973,NaN,airplane,keyboard,NaN,keyboard10-oven3.png
barlow_twins,1,974,NaN,airplane,keyboard,NaN,keyboard10-truck1.png
barlow_twins,1,975,NaN,keyboard,keyboard,NaN,keyboard2-bicycle3.png
barlow_twins,1,976,NaN,airplane,keyboard,NaN,keyboard2-bottle1.png
barlow_twins,1,977,NaN,airplane,keyboard,NaN,keyboard2-clock1.png
barlow_twins,1,978,NaN,airplane,keyboard,NaN,keyboard2-elephant1.png
barlow_twins,1,979,NaN,airplane,keyboard,NaN,keyboard2-knife1.png
barlow_twins,1,980,NaN,keyboard,keyboard,NaN,keyboard3-bicycle2.png
barlow_twins,1,981,NaN,car,keyboard,NaN,keyboard3-bird3.png
barlow_twins,1,982,NaN,airplane,keyboard,NaN,keyboard3-boat1.png
barlow_twins,1,983,NaN,airplane,keyboard,NaN,keyboard3-car2.png
barlow_twins,1,984,NaN,bicycle,keyboard,NaN,keyboard3-cat1.png
barlow_twins,1,985,NaN,oven,keyboard,NaN,keyboard3-clock3.png
barlow_twins,1,986,NaN,oven,keyboard,NaN,keyboard3-elephant2.png
barlow_twins,1,987,NaN,bicycle,keyboard,NaN,keyboard4-bird1.png
barlow_twins,1,988,NaN,airplane,keyboard,NaN,keyboard4-bottle2.png
barlow_twins,1,989,NaN,car,keyboard,NaN,keyboard4-cat2.png
barlow_twins,1,990,NaN,airplane,keyboard,NaN,keyboard4-clock2.png
barlow_twins,1,991,NaN,clock,keyboard,NaN,keyboard4-keyboard2.png
barlow_twins,1,992,NaN,airplane,keyboard,NaN,keyboard4-knife2.png
barlow_twins,1,993,NaN,airplane,keyboard,NaN,keyboard4-oven2.png
barlow_twins,1,994,NaN,airplane,keyboard,NaN,keyboard4-truck3.png
barlow_twins,1,995,NaN,car,keyboard,NaN,keyboard5-airplane3.png
barlow_twins,1,996,NaN,oven,keyboard,NaN,keyboard5-bear3.png
barlow_twins,1,997,NaN,clock,keyboard,NaN,keyboard5-bicycle1.png
barlow_twins,1,998,NaN,car,keyboard,NaN,keyboard5-bird3.png
barlow_twins,1,999,NaN,airplane,keyboard,NaN,keyboard5-bottle1.png
barlow_twins,1,1000,NaN,bear,keyboard,NaN,keyboard5-cat1.png
barlow_twins,1,1001,NaN,clock,keyboard,NaN,keyboard5-dog3.png
barlow_twins,1,1002,NaN,car,keyboard,NaN,keyboard5-keyboard1.png
barlow_twins,1,1003,NaN,airplane,keyboard,NaN,keyboard5-knife2.png
barlow_twins,1,1004,NaN,airplane,keyboard,NaN,keyboard5-oven2.png
barlow_twins,1,1005,NaN,bicycle,keyboard,NaN,keyboard6-bear2.png
barlow_twins,1,1006,NaN,airplane,keyboard,NaN,keyboard6-bicycle1.png
barlow_twins,1,1007,NaN,keyboard,keyboard,NaN,keyboard6-boat2.png
barlow_twins,1,1008,NaN,airplane,keyboard,NaN,keyboard6-bottle2.png
barlow_twins,1,1009,NaN,airplane,keyboard,NaN,keyboard6-car2.png
barlow_twins,1,1010,NaN,airplane,keyboard,NaN,keyboard6-chair1.png
barlow_twins,1,1011,NaN,bicycle,keyboard,NaN,keyboard6-dog2.png
barlow_twins,1,1012,NaN,oven,keyboard,NaN,keyboard6-elephant1.png
barlow_twins,1,1013,NaN,airplane,keyboard,NaN,keyboard6-knife2.png
barlow_twins,1,1014,NaN,oven,keyboard,NaN,keyboard7-bear2.png
barlow_twins,1,1015,NaN,airplane,keyboard,NaN,keyboard7-boat2.png
barlow_twins,1,1016,NaN,airplane,keyboard,NaN,keyboard7-bottle1.png
barlow_twins,1,1017,NaN,airplane,keyboard,NaN,keyboard7-car3.png
barlow_twins,1,1018,NaN,airplane,keyboard,NaN,keyboard7-chair3.png
barlow_twins,1,1019,NaN,clock,keyboard,NaN,keyboard7-clock3.png
barlow_twins,1,1020,NaN,clock,keyboard,NaN,keyboard7-dog1.png
barlow_twins,1,1021,NaN,airplane,keyboard,NaN,keyboard7-knife1.png
barlow_twins,1,1022,NaN,airplane,keyboard,NaN,keyboard7-oven2.png
barlow_twins,1,1023,NaN,airplane,keyboard,NaN,keyboard7-truck2.png
barlow_twins,1,1024,NaN,airplane,keyboard,NaN,keyboard8-airplane2.png
barlow_twins,1,1025,NaN,airplane,keyboard,NaN,keyboard8-cat3.png
barlow_twins,1,1026,NaN,airplane,keyboard,NaN,keyboard8-chair2.png
barlow_twins,1,1027,NaN,clock,keyboard,NaN,keyboard8-dog3.png
barlow_twins,1,1028,NaN,clock,keyboard,NaN,keyboard8-keyboard2.png
barlow_twins,1,1029,NaN,keyboard,keyboard,NaN,keyboard8-oven1.png
barlow_twins,1,1030,NaN,airplane,keyboard,NaN,keyboard8-truck3.png
barlow_twins,1,1031,NaN,airplane,keyboard,NaN,keyboard9-airplane3.png
barlow_twins,1,1032,NaN,bicycle,keyboard,NaN,keyboard9-bear2.png
barlow_twins,1,1033,NaN,keyboard,keyboard,NaN,keyboard9-bicycle2.png
barlow_twins,1,1034,NaN,bicycle,keyboard,NaN,keyboard9-bird1.png
barlow_twins,1,1035,NaN,keyboard,keyboard,NaN,keyboard9-boat2.png
barlow_twins,1,1036,NaN,bicycle,keyboard,NaN,keyboard9-cat1.png
barlow_twins,1,1037,NaN,keyboard,keyboard,NaN,keyboard9-chair2.png
barlow_twins,1,1038,NaN,oven,keyboard,NaN,keyboard9-elephant2.png
barlow_twins,1,1039,NaN,clock,keyboard,NaN,keyboard9-keyboard2.png
barlow_twins,1,1040,NaN,airplane,keyboard,NaN,keyboard9-truck3.png
barlow_twins,1,1041,NaN,knife,knife,NaN,knife1-airplane1.png
barlow_twins,1,1042,NaN,airplane,knife,NaN,knife1-bird2.png
barlow_twins,1,1043,NaN,airplane,knife,NaN,knife1-car3.png
barlow_twins,1,1044,NaN,oven,knife,NaN,knife1-chair1.png
barlow_twins,1,1045,NaN,airplane,knife,NaN,knife1-clock2.png
barlow_twins,1,1046,NaN,bicycle,knife,NaN,knife1-dog1.png
barlow_twins,1,1047,NaN,airplane,knife,NaN,knife1-elephant1.png
barlow_twins,1,1048,NaN,clock,knife,NaN,knife1-keyboard3.png
barlow_twins,1,1049,NaN,knife,knife,NaN,knife1-oven1.png
barlow_twins,1,1050,NaN,airplane,knife,NaN,knife1-truck2.png
barlow_twins,1,1051,NaN,oven,knife,NaN,knife10-bear3.png
barlow_twins,1,1052,NaN,airplane,knife,NaN,knife10-chair1.png
barlow_twins,1,1053,NaN,bicycle,knife,NaN,knife10-dog1.png
barlow_twins,1,1054,NaN,oven,knife,NaN,knife10-elephant3.png
barlow_twins,1,1055,NaN,bicycle,knife,NaN,knife10-keyboard3.png
barlow_twins,1,1056,NaN,airplane,knife,NaN,knife10-knife1.png
barlow_twins,1,1057,NaN,airplane,knife,NaN,knife10-oven3.png
barlow_twins,1,1058,NaN,bicycle,knife,NaN,knife2-bear2.png
barlow_twins,1,1059,NaN,keyboard,knife,NaN,knife2-bicycle3.png
barlow_twins,1,1060,NaN,bicycle,knife,NaN,knife2-bird1.png
barlow_twins,1,1061,NaN,airplane,knife,NaN,knife2-bottle2.png
barlow_twins,1,1062,NaN,airplane,knife,NaN,knife2-car3.png
barlow_twins,1,1063,NaN,knife,knife,NaN,knife2-cat3.png
barlow_twins,1,1064,NaN,bicycle,knife,NaN,knife2-dog1.png
barlow_twins,1,1065,NaN,oven,knife,NaN,knife2-elephant2.png
barlow_twins,1,1066,NaN,airplane,knife,NaN,knife2-truck2.png
barlow_twins,1,1067,NaN,bicycle,knife,NaN,knife3-bear2.png
barlow_twins,1,1068,NaN,bicycle,knife,NaN,knife3-cat1.png
barlow_twins,1,1069,NaN,airplane,knife,NaN,knife3-clock2.png
barlow_twins,1,1070,NaN,knife,knife,NaN,knife3-keyboard3.png
barlow_twins,1,1071,NaN,airplane,knife,NaN,knife3-knife1.png
barlow_twins,1,1072,NaN,airplane,knife,NaN,knife4-airplane3.png
barlow_twins,1,1073,NaN,airplane,knife,NaN,knife4-bear1.png
barlow_twins,1,1074,NaN,airplane,knife,NaN,knife4-boat1.png
barlow_twins,1,1075,NaN,airplane,knife,NaN,knife4-car2.png
barlow_twins,1,1076,NaN,knife,knife,NaN,knife4-cat2.png
barlow_twins,1,1077,NaN,oven,knife,NaN,knife4-clock3.png
barlow_twins,1,1078,NaN,bicycle,knife,NaN,knife4-keyboard1.png
barlow_twins,1,1079,NaN,airplane,knife,NaN,knife4-knife2.png
barlow_twins,1,1080,NaN,knife,knife,NaN,knife4-oven2.png
barlow_twins,1,1081,NaN,keyboard,knife,NaN,knife5-bicycle2.png
barlow_twins,1,1082,NaN,knife,knife,NaN,knife5-cat2.png
barlow_twins,1,1083,NaN,airplane,knife,NaN,knife5-clock1.png
barlow_twins,1,1084,NaN,bicycle,knife,NaN,knife5-dog1.png
barlow_twins,1,1085,NaN,bicycle,knife,NaN,knife5-keyboard3.png
barlow_twins,1,1086,NaN,airplane,knife,NaN,knife5-knife3.png
barlow_twins,1,1087,NaN,airplane,knife,NaN,knife5-oven2.png
barlow_twins,1,1088,NaN,airplane,knife,NaN,knife5-truck3.png
barlow_twins,1,1089,NaN,clock,knife,NaN,knife6-airplane1.png
barlow_twins,1,1090,NaN,airplane,knife,NaN,knife6-bicycle1.png
barlow_twins,1,1091,NaN,bicycle,knife,NaN,knife6-bird1.png
barlow_twins,1,1092,NaN,bicycle,knife,NaN,knife6-boat3.png
barlow_twins,1,1093,NaN,airplane,knife,NaN,knife6-bottle3.png
barlow_twins,1,1094,NaN,airplane,knife,NaN,knife6-chair3.png
barlow_twins,1,1095,NaN,airplane,knife,NaN,knife6-clock2.png
barlow_twins,1,1096,NaN,bicycle,knife,NaN,knife6-dog2.png
barlow_twins,1,1097,NaN,airplane,knife,NaN,knife6-knife1.png
barlow_twins,1,1098,NaN,airplane,knife,NaN,knife6-oven3.png
barlow_twins,1,1099,NaN,airplane,knife,NaN,knife6-truck1.png
barlow_twins,1,1100,NaN,car,knife,NaN,knife7-airplane3.png
barlow_twins,1,1101,NaN,car,knife,NaN,knife7-bird3.png
barlow_twins,1,1102,NaN,airplane,knife,NaN,knife7-boat3.png
barlow_twins,1,1103,NaN,airplane,knife,NaN,knife7-bottle3.png
barlow_twins,1,1104,NaN,airplane,knife,NaN,knife7-car2.png
barlow_twins,1,1105,NaN,airplane,knife,NaN,knife7-chair2.png
barlow_twins,1,1106,NaN,oven,knife,NaN,knife7-elephant2.png
barlow_twins,1,1107,NaN,airplane,knife,NaN,knife8-bicycle1.png
barlow_twins,1,1108,NaN,airplane,knife,NaN,knife8-boat1.png
barlow_twins,1,1109,NaN,airplane,knife,NaN,knife8-bottle3.png
barlow_twins,1,1110,NaN,airplane,knife,NaN,knife8-car2.png
barlow_twins,1,1111,NaN,bicycle,knife,NaN,knife8-cat2.png
barlow_twins,1,1112,NaN,airplane,knife,NaN,knife8-truck3.png
barlow_twins,1,1113,NaN,airplane,knife,NaN,knife9-airplane2.png
barlow_twins,1,1114,NaN,oven,knife,NaN,knife9-bear3.png
barlow_twins,1,1115,NaN,airplane,knife,NaN,knife9-bicycle1.png
barlow_twins,1,1116,NaN,bicycle,knife,NaN,knife9-bird1.png
barlow_twins,1,1117,NaN,airplane,knife,NaN,knife9-boat1.png
barlow_twins,1,1118,NaN,airplane,knife,NaN,knife9-bottle2.png
barlow_twins,1,1119,NaN,airplane,knife,NaN,knife9-chair1.png
barlow_twins,1,1120,NaN,oven,knife,NaN,knife9-elephant2.png
barlow_twins,1,1121,NaN,car,oven,NaN,oven1-bird3.png
barlow_twins,1,1122,NaN,car,oven,NaN,oven1-boat3.png
barlow_twins,1,1123,NaN,car,oven,NaN,oven1-cat1.png
barlow_twins,1,1124,NaN,airplane,oven,NaN,oven1-clock3.png
barlow_twins,1,1125,NaN,bicycle,oven,NaN,oven1-dog3.png
barlow_twins,1,1126,NaN,airplane,oven,NaN,oven10-airplane2.png
barlow_twins,1,1127,NaN,airplane,oven,NaN,oven10-bear1.png
barlow_twins,1,1128,NaN,car,oven,NaN,oven10-bicycle1.png
barlow_twins,1,1129,NaN,airplane,oven,NaN,oven10-boat2.png
barlow_twins,1,1130,NaN,bicycle,oven,NaN,oven10-cat2.png
barlow_twins,1,1131,NaN,airplane,oven,NaN,oven10-oven3.png
barlow_twins,1,1132,NaN,airplane,oven,NaN,oven10-truck2.png
barlow_twins,1,1133,NaN,car,oven,NaN,oven2-bear3.png
barlow_twins,1,1134,NaN,airplane,oven,NaN,oven2-bicycle1.png
barlow_twins,1,1135,NaN,airplane,oven,NaN,oven2-bird2.png
barlow_twins,1,1136,NaN,car,oven,NaN,oven2-boat3.png
barlow_twins,1,1137,NaN,airplane,oven,NaN,oven2-bottle1.png
barlow_twins,1,1138,NaN,airplane,oven,NaN,oven2-car1.png
barlow_twins,1,1139,NaN,airplane,oven,NaN,oven2-chair1.png
barlow_twins,1,1140,NaN,car,oven,NaN,oven2-dog3.png
barlow_twins,1,1141,NaN,airplane,oven,NaN,oven2-oven3.png
barlow_twins,1,1142,NaN,airplane,oven,NaN,oven2-truck3.png
barlow_twins,1,1143,NaN,oven,oven,NaN,oven3-airplane1.png
barlow_twins,1,1144,NaN,airplane,oven,NaN,oven3-bear2.png
barlow_twins,1,1145,NaN,airplane,oven,NaN,oven3-boat3.png
barlow_twins,1,1146,NaN,airplane,oven,NaN,oven3-bottle3.png
barlow_twins,1,1147,NaN,airplane,oven,NaN,oven3-car2.png
barlow_twins,1,1148,NaN,keyboard,oven,NaN,oven3-cat2.png
barlow_twins,1,1149,NaN,airplane,oven,NaN,oven3-clock3.png
barlow_twins,1,1150,NaN,airplane,oven,NaN,oven3-elephant3.png
barlow_twins,1,1151,NaN,airplane,oven,NaN,oven3-knife1.png
barlow_twins,1,1152,NaN,airplane,oven,NaN,oven3-truck1.png
barlow_twins,1,1153,NaN,airplane,oven,NaN,oven4-bicycle2.png
barlow_twins,1,1154,NaN,airplane,oven,NaN,oven4-bottle2.png
barlow_twins,1,1155,NaN,airplane,oven,NaN,oven4-car1.png
barlow_twins,1,1156,NaN,airplane,oven,NaN,oven4-chair1.png
barlow_twins,1,1157,NaN,airplane,oven,NaN,oven4-clock2.png
barlow_twins,1,1158,NaN,car,oven,NaN,oven4-dog1.png
barlow_twins,1,1159,NaN,airplane,oven,NaN,oven4-elephant3.png
barlow_twins,1,1160,NaN,bicycle,oven,NaN,oven4-keyboard3.png
barlow_twins,1,1161,NaN,airplane,oven,NaN,oven4-knife2.png
barlow_twins,1,1162,NaN,airplane,oven,NaN,oven4-truck3.png
barlow_twins,1,1163,NaN,clock,oven,NaN,oven5-airplane1.png
barlow_twins,1,1164,NaN,car,oven,NaN,oven5-bicycle1.png
barlow_twins,1,1165,NaN,bicycle,oven,NaN,oven5-bird1.png
barlow_twins,1,1166,NaN,airplane,oven,NaN,oven5-bottle3.png
barlow_twins,1,1167,NaN,car,oven,NaN,oven5-dog3.png
barlow_twins,1,1168,NaN,oven,oven,NaN,oven5-elephant1.png
barlow_twins,1,1169,NaN,bicycle,oven,NaN,oven5-keyboard2.png
barlow_twins,1,1170,NaN,airplane,oven,NaN,oven6-airplane3.png
barlow_twins,1,1171,NaN,bicycle,oven,NaN,oven6-bear2.png
barlow_twins,1,1172,NaN,keyboard,oven,NaN,oven6-bicycle1.png
barlow_twins,1,1173,NaN,clock,oven,NaN,oven6-bird1.png
barlow_twins,1,1174,NaN,airplane,oven,NaN,oven6-chair3.png
barlow_twins,1,1175,NaN,oven,oven,NaN,oven6-elephant2.png
barlow_twins,1,1176,NaN,airplane,oven,NaN,oven6-knife3.png
barlow_twins,1,1177,NaN,airplane,oven,NaN,oven6-oven3.png
barlow_twins,1,1178,NaN,airplane,oven,NaN,oven6-truck1.png
barlow_twins,1,1179,NaN,airplane,oven,NaN,oven7-bottle1.png
barlow_twins,1,1180,NaN,airplane,oven,NaN,oven7-car3.png
barlow_twins,1,1181,NaN,bear,oven,NaN,oven7-cat1.png
barlow_twins,1,1182,NaN,airplane,oven,NaN,oven7-clock2.png
barlow_twins,1,1183,NaN,bear,oven,NaN,oven7-dog2.png
barlow_twins,1,1184,NaN,airplane,oven,NaN,oven7-elephant1.png
barlow_twins,1,1185,NaN,bicycle,oven,NaN,oven7-keyboard1.png
barlow_twins,1,1186,NaN,airplane,oven,NaN,oven7-oven1.png
barlow_twins,1,1187,NaN,knife,oven,NaN,oven8-cat3.png
barlow_twins,1,1188,NaN,airplane,oven,NaN,oven8-chair1.png
barlow_twins,1,1189,NaN,bicycle,oven,NaN,oven8-keyboard3.png
barlow_twins,1,1190,NaN,airplane,oven,NaN,oven8-knife2.png
barlow_twins,1,1191,NaN,car,oven,NaN,oven9-airplane2.png
barlow_twins,1,1192,NaN,airplane,oven,NaN,oven9-bear2.png
barlow_twins,1,1193,NaN,car,oven,NaN,oven9-bird3.png
barlow_twins,1,1194,NaN,airplane,oven,NaN,oven9-boat2.png
barlow_twins,1,1195,NaN,airplane,oven,NaN,oven9-car2.png
barlow_twins,1,1196,NaN,airplane,oven,NaN,oven9-chair1.png
barlow_twins,1,1197,NaN,car,oven,NaN,oven9-clock2.png
barlow_twins,1,1198,NaN,airplane,oven,NaN,oven9-keyboard1.png
barlow_twins,1,1199,NaN,airplane,oven,NaN,oven9-knife3.png
barlow_twins,1,1200,NaN,elephant,oven,NaN,oven9-oven1.png
barlow_twins,1,1201,NaN,bicycle,truck,NaN,truck1-bear1.png
barlow_twins,1,1202,NaN,keyboard,truck,NaN,truck1-bicycle3.png
barlow_twins,1,1203,NaN,bicycle,truck,NaN,truck1-bird1.png
barlow_twins,1,1204,NaN,airplane,truck,NaN,truck1-car3.png
barlow_twins,1,1205,NaN,bicycle,truck,NaN,truck1-cat1.png
barlow_twins,1,1206,NaN,airplane,truck,NaN,truck1-chair2.png
barlow_twins,1,1207,NaN,airplane,truck,NaN,truck1-clock3.png
barlow_twins,1,1208,NaN,bicycle,truck,NaN,truck1-dog1.png
barlow_twins,1,1209,NaN,airplane,truck,NaN,truck1-knife1.png
barlow_twins,1,1210,NaN,knife,truck,NaN,truck10-airplane1.png
barlow_twins,1,1211,NaN,airplane,truck,NaN,truck10-bicycle1.png
barlow_twins,1,1212,NaN,airplane,truck,NaN,truck10-car3.png
barlow_twins,1,1213,NaN,airplane,truck,NaN,truck10-clock1.png
barlow_twins,1,1214,NaN,oven,truck,NaN,truck10-elephant3.png
barlow_twins,1,1215,NaN,airplane,truck,NaN,truck10-truck3.png
barlow_twins,1,1216,NaN,car,truck,NaN,truck2-airplane3.png
barlow_twins,1,1217,NaN,airplane,truck,NaN,truck2-bicycle2.png
barlow_twins,1,1218,NaN,airplane,truck,NaN,truck2-bird2.png
barlow_twins,1,1219,NaN,airplane,truck,NaN,truck2-boat3.png
barlow_twins,1,1220,NaN,airplane,truck,NaN,truck2-bottle3.png
barlow_twins,1,1221,NaN,airplane,truck,NaN,truck2-car3.png
barlow_twins,1,1222,NaN,chair,truck,NaN,truck2-chair1.png
barlow_twins,1,1223,NaN,airplane,truck,NaN,truck2-clock1.png
barlow_twins,1,1224,NaN,airplane,truck,NaN,truck2-elephant1.png
barlow_twins,1,1225,NaN,airplane,truck,NaN,truck2-keyboard1.png
barlow_twins,1,1226,NaN,airplane,truck,NaN,truck2-oven3.png
barlow_twins,1,1227,NaN,oven,truck,NaN,truck3-bear3.png
barlow_twins,1,1228,NaN,airplane,truck,NaN,truck3-bicycle1.png
barlow_twins,1,1229,NaN,airplane,truck,NaN,truck3-bird2.png
barlow_twins,1,1230,NaN,airplane,truck,NaN,truck3-car3.png
barlow_twins,1,1231,NaN,bicycle,truck,NaN,truck3-cat1.png
barlow_twins,1,1232,NaN,keyboard,truck,NaN,truck3-chair2.png
barlow_twins,1,1233,NaN,bicycle,truck,NaN,truck3-clock3.png
barlow_twins,1,1234,NaN,car,truck,NaN,truck3-dog3.png
barlow_twins,1,1235,NaN,airplane,truck,NaN,truck3-keyboard3.png
barlow_twins,1,1236,NaN,airplane,truck,NaN,truck3-knife2.png
barlow_twins,1,1237,NaN,airplane,truck,NaN,truck3-oven2.png
barlow_twins,1,1238,NaN,airplane,truck,NaN,truck4-airplane3.png
barlow_twins,1,1239,NaN,airplane,truck,NaN,truck4-bear1.png
barlow_twins,1,1240,NaN,airplane,truck,NaN,truck4-boat3.png
barlow_twins,1,1241,NaN,airplane,truck,NaN,truck4-bottle2.png
barlow_twins,1,1242,NaN,airplane,truck,NaN,truck4-knife1.png
barlow_twins,1,1243,NaN,airplane,truck,NaN,truck4-oven2.png
barlow_twins,1,1244,NaN,airplane,truck,NaN,truck5-airplane2.png
barlow_twins,1,1245,NaN,bear,truck,NaN,truck5-bird2.png
barlow_twins,1,1246,NaN,airplane,truck,NaN,truck5-car1.png
barlow_twins,1,1247,NaN,bicycle,truck,NaN,truck5-cat3.png
barlow_twins,1,1248,NaN,bicycle,truck,NaN,truck5-dog3.png
barlow_twins,1,1249,NaN,bicycle,truck,NaN,truck5-keyboard1.png
barlow_twins,1,1250,NaN,airplane,truck,NaN,truck5-knife3.png
barlow_twins,1,1251,NaN,car,truck,NaN,truck5-truck1.png
barlow_twins,1,1252,NaN,bicycle,truck,NaN,truck6-bear2.png
barlow_twins,1,1253,NaN,airplane,truck,NaN,truck6-bicycle1.png
barlow_twins,1,1254,NaN,airplane,truck,NaN,truck6-boat2.png
barlow_twins,1,1255,NaN,airplane,truck,NaN,truck6-bottle3.png
barlow_twins,1,1256,NaN,car,truck,NaN,truck6-cat2.png
barlow_twins,1,1257,NaN,airplane,truck,NaN,truck6-clock2.png
barlow_twins,1,1258,NaN,bicycle,truck,NaN,truck6-dog2.png
barlow_twins,1,1259,NaN,airplane,truck,NaN,truck6-knife2.png
barlow_twins,1,1260,NaN,airplane,truck,NaN,truck6-oven3.png
barlow_twins,1,1261,NaN,airplane,truck,NaN,truck6-truck2.png
barlow_twins,1,1262,NaN,airplane,truck,NaN,truck7-bear2.png
barlow_twins,1,1263,NaN,airplane,truck,NaN,truck7-bird2.png
barlow_twins,1,1264,NaN,airplane,truck,NaN,truck7-boat1.png
barlow_twins,1,1265,NaN,airplane,truck,NaN,truck7-chair2.png
barlow_twins,1,1266,NaN,oven,truck,NaN,truck7-elephant2.png
barlow_twins,1,1267,NaN,airplane,truck,NaN,truck7-keyboard3.png
barlow_twins,1,1268,NaN,airplane,truck,NaN,truck7-oven2.png
barlow_twins,1,1269,NaN,airplane,truck,NaN,truck7-truck2.png
barlow_twins,1,1270,NaN,airplane,truck,NaN,truck8-bottle2.png
barlow_twins,1,1271,NaN,bicycle,truck,NaN,truck8-cat2.png
barlow_twins,1,1272,NaN,bicycle,truck,NaN,truck8-dog3.png
barlow_twins,1,1273,NaN,airplane,truck,NaN,truck8-elephant1.png
barlow_twins,1,1274,NaN,bicycle,truck,NaN,truck8-keyboard2.png
barlow_twins,1,1275,NaN,airplane,truck,NaN,truck9-airplane2.png
barlow_twins,1,1276,NaN,airplane,truck,NaN,truck9-boat3.png
barlow_twins,1,1277,NaN,airplane,truck,NaN,truck9-bottle2.png
barlow_twins,1,1278,NaN,airplane,truck,NaN,truck9-chair3.png
barlow_twins,1,1279,NaN,cat,truck,NaN,truck9-elephant1.png
barlow_twins,1,1280,NaN,airplane,truck,NaN,truck9-truck3.png
