subj,session,trial,rt,object_response,category,condition,imagename
inception_v1,1,1,NaN,bottle,airplane,NaN,airplane1-bicycle2.png
inception_v1,1,2,NaN,boat,airplane,NaN,airplane1-chair2.png
inception_v1,1,3,NaN,bicycle,airplane,NaN,airplane1-clock1.png
inception_v1,1,4,NaN,elephant,airplane,NaN,airplane1-elephant1.png
inception_v1,1,5,NaN,airplane,airplane,NaN,airplane10-airplane1.png
inception_v1,1,6,NaN,bear,airplane,NaN,airplane10-bear3.png
inception_v1,1,7,NaN,airplane,airplane,NaN,airplane10-boat3.png
inception_v1,1,8,NaN,bicycle,airplane,NaN,airplane10-car3.png
inception_v1,1,9,NaN,cat,airplane,NaN,airplane10-cat2.png
inception_v1,1,10,NaN,dog,airplane,NaN,airplane10-dog3.png
inception_v1,1,11,NaN,elephant,airplane,NaN,airplane10-elephant1.png
inception_v1,1,12,NaN,boat,airplane,NaN,airplane10-knife3.png
inception_v1,1,13,NaN,car,airplane,NaN,airplane10-oven2.png
inception_v1,1,14,NaN,bicycle,airplane,NaN,airplane10-truck1.png
inception_v1,1,15,NaN,bear,airplane,NaN,airplane2-bear1.png
inception_v1,1,16,NaN,bicycle,airplane,NaN,airplane2-bicycle1.png
inception_v1,1,17,NaN,bird,airplane,NaN,airplane2-bird3.png
inception_v1,1,18,NaN,bottle,airplane,NaN,airplane2-bottle1.png
inception_v1,1,19,NaN,cat,airplane,NaN,airplane2-cat1.png
inception_v1,1,20,NaN,dog,airplane,NaN,airplane2-dog1.png
inception_v1,1,21,NaN,airplane,airplane,NaN,airplane3-airplane2.png
inception_v1,1,22,NaN,bicycle,airplane,NaN,airplane3-car1.png
inception_v1,1,23,NaN,dog,airplane,NaN,airplane3-cat1.png
inception_v1,1,24,NaN,knife,airplane,NaN,airplane3-chair3.png
inception_v1,1,25,NaN,bicycle,airplane,NaN,airplane3-clock1.png
inception_v1,1,26,NaN,dog,airplane,NaN,airplane3-dog1.png
inception_v1,1,27,NaN,elephant,airplane,NaN,airplane3-elephant1.png
inception_v1,1,28,NaN,keyboard,airplane,NaN,airplane3-keyboard2.png
inception_v1,1,29,NaN,boat,airplane,NaN,airplane3-oven1.png
inception_v1,1,30,NaN,airplane,airplane,NaN,airplane4-airplane1.png
inception_v1,1,31,NaN,bear,airplane,NaN,airplane4-bear3.png
inception_v1,1,32,NaN,bottle,airplane,NaN,airplane4-bicycle2.png
inception_v1,1,33,NaN,bird,airplane,NaN,airplane4-bird3.png
inception_v1,1,34,NaN,car,airplane,NaN,airplane4-boat3.png
inception_v1,1,35,NaN,bottle,airplane,NaN,airplane4-bottle1.png
inception_v1,1,36,NaN,bicycle,airplane,NaN,airplane4-car1.png
inception_v1,1,37,NaN,cat,airplane,NaN,airplane4-cat3.png
inception_v1,1,38,NaN,dog,airplane,NaN,airplane4-dog2.png
inception_v1,1,39,NaN,elephant,airplane,NaN,airplane4-elephant1.png
inception_v1,1,40,NaN,clock,airplane,NaN,airplane4-keyboard3.png
inception_v1,1,41,NaN,clock,airplane,NaN,airplane4-knife1.png
inception_v1,1,42,NaN,bicycle,airplane,NaN,airplane4-truck2.png
inception_v1,1,43,NaN,bear,airplane,NaN,airplane5-bear2.png
inception_v1,1,44,NaN,airplane,airplane,NaN,airplane5-bicycle1.png
inception_v1,1,45,NaN,bird,airplane,NaN,airplane5-bird2.png
inception_v1,1,46,NaN,airplane,airplane,NaN,airplane5-boat3.png
inception_v1,1,47,NaN,bottle,airplane,NaN,airplane5-bottle3.png
inception_v1,1,48,NaN,airplane,airplane,NaN,airplane5-chair3.png
inception_v1,1,49,NaN,dog,airplane,NaN,airplane5-dog3.png
inception_v1,1,50,NaN,chair,airplane,NaN,airplane5-knife1.png
inception_v1,1,51,NaN,keyboard,airplane,NaN,airplane5-oven3.png
inception_v1,1,52,NaN,bear,airplane,NaN,airplane6-bear3.png
inception_v1,1,53,NaN,bottle,airplane,NaN,airplane6-bottle2.png
inception_v1,1,54,NaN,airplane,airplane,NaN,airplane6-chair3.png
inception_v1,1,55,NaN,bottle,airplane,NaN,airplane6-keyboard3.png
inception_v1,1,56,NaN,clock,airplane,NaN,airplane6-knife1.png
inception_v1,1,57,NaN,airplane,airplane,NaN,airplane7-airplane3.png
inception_v1,1,58,NaN,bird,airplane,NaN,airplane7-bird3.png
inception_v1,1,59,NaN,airplane,airplane,NaN,airplane7-boat2.png
inception_v1,1,60,NaN,bottle,airplane,NaN,airplane7-bottle3.png
inception_v1,1,61,NaN,clock,airplane,NaN,airplane7-car1.png
inception_v1,1,62,NaN,dog,airplane,NaN,airplane7-cat3.png
inception_v1,1,63,NaN,bicycle,airplane,NaN,airplane7-clock3.png
inception_v1,1,64,NaN,airplane,airplane,NaN,airplane7-keyboard1.png
inception_v1,1,65,NaN,bottle,airplane,NaN,airplane7-truck1.png
inception_v1,1,66,NaN,bird,airplane,NaN,airplane8-bicycle3.png
inception_v1,1,67,NaN,bird,airplane,NaN,airplane8-bird1.png
inception_v1,1,68,NaN,knife,airplane,NaN,airplane8-chair1.png
inception_v1,1,69,NaN,bottle,airplane,NaN,airplane8-clock2.png
inception_v1,1,70,NaN,elephant,airplane,NaN,airplane8-elephant3.png
inception_v1,1,71,NaN,clock,airplane,NaN,airplane8-oven2.png
inception_v1,1,72,NaN,knife,airplane,NaN,airplane8-truck3.png
inception_v1,1,73,NaN,airplane,airplane,NaN,airplane9-airplane2.png
inception_v1,1,74,NaN,bicycle,airplane,NaN,airplane9-boat1.png
inception_v1,1,75,NaN,bicycle,airplane,NaN,airplane9-car2.png
inception_v1,1,76,NaN,bicycle,airplane,NaN,airplane9-clock1.png
inception_v1,1,77,NaN,bicycle,airplane,NaN,airplane9-keyboard2.png
inception_v1,1,78,NaN,boat,airplane,NaN,airplane9-knife3.png
inception_v1,1,79,NaN,truck,airplane,NaN,airplane9-oven2.png
inception_v1,1,80,NaN,bicycle,airplane,NaN,airplane9-truck1.png
inception_v1,1,81,NaN,bicycle,bear,NaN,bear1-airplane3.png
inception_v1,1,82,NaN,bear,bear,NaN,bear1-bear3.png
inception_v1,1,83,NaN,bird,bear,NaN,bear1-bicycle3.png
inception_v1,1,84,NaN,bear,bear,NaN,bear1-bird2.png
inception_v1,1,85,NaN,oven,bear,NaN,bear1-chair2.png
inception_v1,1,86,NaN,bottle,bear,NaN,bear1-clock2.png
inception_v1,1,87,NaN,elephant,bear,NaN,bear1-elephant1.png
inception_v1,1,88,NaN,bear,bear,NaN,bear10-bear2.png
inception_v1,1,89,NaN,bicycle,bear,NaN,bear10-bottle1.png
inception_v1,1,90,NaN,bicycle,bear,NaN,bear10-car2.png
inception_v1,1,91,NaN,dog,bear,NaN,bear10-cat2.png
inception_v1,1,92,NaN,oven,bear,NaN,bear10-chair2.png
inception_v1,1,93,NaN,bicycle,bear,NaN,bear10-clock1.png
inception_v1,1,94,NaN,elephant,bear,NaN,bear10-elephant1.png
inception_v1,1,95,NaN,bottle,bear,NaN,bear10-keyboard3.png
inception_v1,1,96,NaN,bicycle,bear,NaN,bear10-knife2.png
inception_v1,1,97,NaN,boat,bear,NaN,bear10-oven1.png
inception_v1,1,98,NaN,bicycle,bear,NaN,bear10-truck1.png
inception_v1,1,99,NaN,airplane,bear,NaN,bear2-airplane1.png
inception_v1,1,100,NaN,bear,bear,NaN,bear2-bird3.png
inception_v1,1,101,NaN,bicycle,bear,NaN,bear2-car2.png
inception_v1,1,102,NaN,bear,bear,NaN,bear2-cat2.png
inception_v1,1,103,NaN,dog,bear,NaN,bear2-dog1.png
inception_v1,1,104,NaN,elephant,bear,NaN,bear2-elephant1.png
inception_v1,1,105,NaN,car,bear,NaN,bear2-keyboard2.png
inception_v1,1,106,NaN,clock,bear,NaN,bear2-knife2.png
inception_v1,1,107,NaN,bottle,bear,NaN,bear2-oven1.png
inception_v1,1,108,NaN,airplane,bear,NaN,bear3-airplane1.png
inception_v1,1,109,NaN,keyboard,bear,NaN,bear3-bicycle2.png
inception_v1,1,110,NaN,dog,bear,NaN,bear3-bird3.png
inception_v1,1,111,NaN,bicycle,bear,NaN,bear3-car2.png
inception_v1,1,112,NaN,cat,bear,NaN,bear3-cat1.png
inception_v1,1,113,NaN,oven,bear,NaN,bear3-chair2.png
inception_v1,1,114,NaN,dog,bear,NaN,bear3-dog3.png
inception_v1,1,115,NaN,chair,bear,NaN,bear3-keyboard2.png
inception_v1,1,116,NaN,knife,bear,NaN,bear3-truck3.png
inception_v1,1,117,NaN,airplane,bear,NaN,bear4-boat2.png
inception_v1,1,118,NaN,bicycle,bear,NaN,bear4-car3.png
inception_v1,1,119,NaN,dog,bear,NaN,bear4-cat3.png
inception_v1,1,120,NaN,bicycle,bear,NaN,bear4-clock3.png
inception_v1,1,121,NaN,elephant,bear,NaN,bear4-elephant2.png
inception_v1,1,122,NaN,clock,bear,NaN,bear4-keyboard3.png
inception_v1,1,123,NaN,clock,bear,NaN,bear4-knife1.png
inception_v1,1,124,NaN,keyboard,bear,NaN,bear4-oven2.png
inception_v1,1,125,NaN,knife,bear,NaN,bear4-truck3.png
inception_v1,1,126,NaN,bicycle,bear,NaN,bear5-airplane3.png
inception_v1,1,127,NaN,bottle,bear,NaN,bear5-bicycle3.png
inception_v1,1,128,NaN,bird,bear,NaN,bear5-bird1.png
inception_v1,1,129,NaN,airplane,bear,NaN,bear5-boat2.png
inception_v1,1,130,NaN,bottle,bear,NaN,bear5-bottle1.png
inception_v1,1,131,NaN,clock,bear,NaN,bear5-chair1.png
inception_v1,1,132,NaN,keyboard,bear,NaN,bear5-oven3.png
inception_v1,1,133,NaN,cat,bear,NaN,bear6-bear1.png
inception_v1,1,134,NaN,bear,bear,NaN,bear6-bird2.png
inception_v1,1,135,NaN,airplane,bear,NaN,bear6-boat3.png
inception_v1,1,136,NaN,bottle,bear,NaN,bear6-bottle3.png
inception_v1,1,137,NaN,bicycle,bear,NaN,bear6-car2.png
inception_v1,1,138,NaN,cat,bear,NaN,bear6-cat3.png
inception_v1,1,139,NaN,bicycle,bear,NaN,bear6-chair1.png
inception_v1,1,140,NaN,bicycle,bear,NaN,bear6-clock1.png
inception_v1,1,141,NaN,bear,bear,NaN,bear7-bear2.png
inception_v1,1,142,NaN,truck,bear,NaN,bear7-bicycle2.png
inception_v1,1,143,NaN,bicycle,bear,NaN,bear7-clock1.png
inception_v1,1,144,NaN,bear,bear,NaN,bear7-dog3.png
inception_v1,1,145,NaN,keyboard,bear,NaN,bear7-oven3.png
inception_v1,1,146,NaN,bicycle,bear,NaN,bear7-truck1.png
inception_v1,1,147,NaN,airplane,bear,NaN,bear8-airplane1.png
inception_v1,1,148,NaN,bear,bear,NaN,bear8-bear1.png
inception_v1,1,149,NaN,car,bear,NaN,bear8-bicycle3.png
inception_v1,1,150,NaN,airplane,bear,NaN,bear8-boat2.png
inception_v1,1,151,NaN,bottle,bear,NaN,bear8-bottle1.png
inception_v1,1,152,NaN,bear,bear,NaN,bear8-dog1.png
inception_v1,1,153,NaN,elephant,bear,NaN,bear8-elephant2.png
inception_v1,1,154,NaN,boat,bear,NaN,bear8-knife3.png
inception_v1,1,155,NaN,knife,bear,NaN,bear8-truck3.png
inception_v1,1,156,NaN,airplane,bear,NaN,bear9-boat2.png
inception_v1,1,157,NaN,bottle,bear,NaN,bear9-bottle2.png
inception_v1,1,158,NaN,bear,bear,NaN,bear9-dog1.png
inception_v1,1,159,NaN,bicycle,bear,NaN,bear9-keyboard3.png
inception_v1,1,160,NaN,bicycle,bear,NaN,bear9-knife2.png
inception_v1,1,161,NaN,bicycle,bicycle,NaN,bicycle1-airplane2.png
inception_v1,1,162,NaN,bear,bicycle,NaN,bicycle1-bear1.png
inception_v1,1,163,NaN,bicycle,bicycle,NaN,bicycle1-bicycle3.png
inception_v1,1,164,NaN,bicycle,bicycle,NaN,bicycle1-bird1.png
inception_v1,1,165,NaN,truck,bicycle,NaN,bicycle1-boat3.png
inception_v1,1,166,NaN,bicycle,bicycle,NaN,bicycle1-bottle3.png
inception_v1,1,167,NaN,oven,bicycle,NaN,bicycle1-chair1.png
inception_v1,1,168,NaN,bicycle,bicycle,NaN,bicycle1-clock3.png
inception_v1,1,169,NaN,dog,bicycle,NaN,bicycle1-dog3.png
inception_v1,1,170,NaN,elephant,bicycle,NaN,bicycle1-elephant2.png
inception_v1,1,171,NaN,boat,bicycle,NaN,bicycle1-knife3.png
inception_v1,1,172,NaN,clock,bicycle,NaN,bicycle1-oven1.png
inception_v1,1,173,NaN,bicycle,bicycle,NaN,bicycle1-truck1.png
inception_v1,1,174,NaN,bicycle,bicycle,NaN,bicycle10-airplane2.png
inception_v1,1,175,NaN,bicycle,bicycle,NaN,bicycle10-boat3.png
inception_v1,1,176,NaN,bicycle,bicycle,NaN,bicycle10-clock2.png
inception_v1,1,177,NaN,dog,bicycle,NaN,bicycle10-dog3.png
inception_v1,1,178,NaN,elephant,bicycle,NaN,bicycle10-elephant2.png
inception_v1,1,179,NaN,truck,bicycle,NaN,bicycle2-bicycle1.png
inception_v1,1,180,NaN,dog,bicycle,NaN,bicycle2-bird3.png
inception_v1,1,181,NaN,bicycle,bicycle,NaN,bicycle2-bottle1.png
inception_v1,1,182,NaN,bicycle,bicycle,NaN,bicycle2-car2.png
inception_v1,1,183,NaN,dog,bicycle,NaN,bicycle2-dog1.png
inception_v1,1,184,NaN,clock,bicycle,NaN,bicycle2-keyboard2.png
inception_v1,1,185,NaN,bicycle,bicycle,NaN,bicycle2-knife2.png
inception_v1,1,186,NaN,bird,bicycle,NaN,bicycle3-bird1.png
inception_v1,1,187,NaN,elephant,bicycle,NaN,bicycle3-elephant2.png
inception_v1,1,188,NaN,bicycle,bicycle,NaN,bicycle3-keyboard1.png
inception_v1,1,189,NaN,keyboard,bicycle,NaN,bicycle3-oven3.png
inception_v1,1,190,NaN,bicycle,bicycle,NaN,bicycle3-truck3.png
inception_v1,1,191,NaN,airplane,bicycle,NaN,bicycle4-airplane1.png
inception_v1,1,192,NaN,bicycle,bicycle,NaN,bicycle4-bicycle3.png
inception_v1,1,193,NaN,airplane,bicycle,NaN,bicycle4-boat1.png
inception_v1,1,194,NaN,bicycle,bicycle,NaN,bicycle4-bottle1.png
inception_v1,1,195,NaN,bicycle,bicycle,NaN,bicycle4-car2.png
inception_v1,1,196,NaN,cat,bicycle,NaN,bicycle4-cat1.png
inception_v1,1,197,NaN,oven,bicycle,NaN,bicycle4-chair2.png
inception_v1,1,198,NaN,bicycle,bicycle,NaN,bicycle4-clock3.png
inception_v1,1,199,NaN,bicycle,bicycle,NaN,bicycle4-keyboard3.png
inception_v1,1,200,NaN,boat,bicycle,NaN,bicycle4-knife3.png
inception_v1,1,201,NaN,keyboard,bicycle,NaN,bicycle4-oven3.png
inception_v1,1,202,NaN,bicycle,bicycle,NaN,bicycle4-truck3.png
inception_v1,1,203,NaN,elephant,bicycle,NaN,bicycle5-bear1.png
inception_v1,1,204,NaN,bicycle,bicycle,NaN,bicycle5-bottle3.png
inception_v1,1,205,NaN,bicycle,bicycle,NaN,bicycle5-car3.png
inception_v1,1,206,NaN,dog,bicycle,NaN,bicycle5-cat1.png
inception_v1,1,207,NaN,oven,bicycle,NaN,bicycle5-chair2.png
inception_v1,1,208,NaN,cat,bicycle,NaN,bicycle5-dog2.png
inception_v1,1,209,NaN,elephant,bicycle,NaN,bicycle5-elephant1.png
inception_v1,1,210,NaN,bicycle,bicycle,NaN,bicycle5-keyboard3.png
inception_v1,1,211,NaN,keyboard,bicycle,NaN,bicycle5-oven3.png
inception_v1,1,212,NaN,airplane,bicycle,NaN,bicycle6-airplane2.png
inception_v1,1,213,NaN,bottle,bicycle,NaN,bicycle6-bicycle3.png
inception_v1,1,214,NaN,bicycle,bicycle,NaN,bicycle6-boat2.png
inception_v1,1,215,NaN,bicycle,bicycle,NaN,bicycle6-car2.png
inception_v1,1,216,NaN,dog,bicycle,NaN,bicycle6-cat1.png
inception_v1,1,217,NaN,dog,bicycle,NaN,bicycle6-dog2.png
inception_v1,1,218,NaN,bird,bicycle,NaN,bicycle7-bear2.png
inception_v1,1,219,NaN,keyboard,bicycle,NaN,bicycle7-bicycle2.png
inception_v1,1,220,NaN,cat,bicycle,NaN,bicycle7-cat1.png
inception_v1,1,221,NaN,bicycle,bicycle,NaN,bicycle7-clock3.png
inception_v1,1,222,NaN,elephant,bicycle,NaN,bicycle7-elephant2.png
inception_v1,1,223,NaN,bicycle,bicycle,NaN,bicycle7-knife2.png
inception_v1,1,224,NaN,boat,bicycle,NaN,bicycle7-oven1.png
inception_v1,1,225,NaN,bicycle,bicycle,NaN,bicycle7-truck3.png
inception_v1,1,226,NaN,elephant,bicycle,NaN,bicycle8-bear2.png
inception_v1,1,227,NaN,bicycle,bicycle,NaN,bicycle8-bird2.png
inception_v1,1,228,NaN,airplane,bicycle,NaN,bicycle8-boat1.png
inception_v1,1,229,NaN,oven,bicycle,NaN,bicycle8-chair2.png
inception_v1,1,230,NaN,bicycle,bicycle,NaN,bicycle8-clock3.png
inception_v1,1,231,NaN,bicycle,bicycle,NaN,bicycle8-truck1.png
inception_v1,1,232,NaN,bicycle,bicycle,NaN,bicycle9-airplane2.png
inception_v1,1,233,NaN,bear,bicycle,NaN,bicycle9-bear1.png
inception_v1,1,234,NaN,bicycle,bicycle,NaN,bicycle9-bird3.png
inception_v1,1,235,NaN,bicycle,bicycle,NaN,bicycle9-bottle1.png
inception_v1,1,236,NaN,bicycle,bicycle,NaN,bicycle9-car1.png
inception_v1,1,237,NaN,cat,bicycle,NaN,bicycle9-cat3.png
inception_v1,1,238,NaN,bicycle,bicycle,NaN,bicycle9-chair1.png
inception_v1,1,239,NaN,clock,bicycle,NaN,bicycle9-keyboard3.png
inception_v1,1,240,NaN,boat,bicycle,NaN,bicycle9-knife3.png
inception_v1,1,241,NaN,airplane,bird,NaN,bird1-airplane2.png
inception_v1,1,242,NaN,bear,bird,NaN,bird1-bear1.png
inception_v1,1,243,NaN,keyboard,bird,NaN,bird1-bicycle2.png
inception_v1,1,244,NaN,airplane,bird,NaN,bird1-boat1.png
inception_v1,1,245,NaN,oven,bird,NaN,bird1-chair2.png
inception_v1,1,246,NaN,bicycle,bird,NaN,bird1-clock3.png
inception_v1,1,247,NaN,elephant,bird,NaN,bird1-elephant2.png
inception_v1,1,248,NaN,bottle,bird,NaN,bird1-keyboard3.png
inception_v1,1,249,NaN,boat,bird,NaN,bird1-knife3.png
inception_v1,1,250,NaN,bottle,bird,NaN,bird1-oven1.png
inception_v1,1,251,NaN,bicycle,bird,NaN,bird1-truck1.png
inception_v1,1,252,NaN,bear,bird,NaN,bird10-bear2.png
inception_v1,1,253,NaN,bicycle,bird,NaN,bird10-bicycle1.png
inception_v1,1,254,NaN,bird,bird,NaN,bird10-bird2.png
inception_v1,1,255,NaN,dog,bird,NaN,bird10-cat1.png
inception_v1,1,256,NaN,bicycle,bird,NaN,bird10-chair1.png
inception_v1,1,257,NaN,bicycle,bird,NaN,bird10-clock1.png
inception_v1,1,258,NaN,elephant,bird,NaN,bird10-elephant2.png
inception_v1,1,259,NaN,airplane,bird,NaN,bird2-airplane3.png
inception_v1,1,260,NaN,bird,bird,NaN,bird2-bird2.png
inception_v1,1,261,NaN,bicycle,bird,NaN,bird2-car3.png
inception_v1,1,262,NaN,bicycle,bird,NaN,bird2-clock3.png
inception_v1,1,263,NaN,dog,bird,NaN,bird2-dog2.png
inception_v1,1,264,NaN,chair,bird,NaN,bird2-knife1.png
inception_v1,1,265,NaN,bear,bird,NaN,bird3-bear3.png
inception_v1,1,266,NaN,bird,bird,NaN,bird3-bird2.png
inception_v1,1,267,NaN,car,bird,NaN,bird3-boat3.png
inception_v1,1,268,NaN,bottle,bird,NaN,bird3-bottle2.png
inception_v1,1,269,NaN,dog,bird,NaN,bird3-cat1.png
inception_v1,1,270,NaN,dog,bird,NaN,bird3-dog1.png
inception_v1,1,271,NaN,boat,bird,NaN,bird3-knife3.png
inception_v1,1,272,NaN,boat,bird,NaN,bird3-oven1.png
inception_v1,1,273,NaN,bottle,bird,NaN,bird3-truck3.png
inception_v1,1,274,NaN,boat,bird,NaN,bird4-airplane1.png
inception_v1,1,275,NaN,bottle,bird,NaN,bird4-bicycle2.png
inception_v1,1,276,NaN,cat,bird,NaN,bird4-cat3.png
inception_v1,1,277,NaN,bicycle,bird,NaN,bird4-clock1.png
inception_v1,1,278,NaN,dog,bird,NaN,bird4-dog3.png
inception_v1,1,279,NaN,bicycle,bird,NaN,bird5-airplane3.png
inception_v1,1,280,NaN,bear,bird,NaN,bird5-bear3.png
inception_v1,1,281,NaN,bottle,bird,NaN,bird5-bicycle1.png
inception_v1,1,282,NaN,bird,bird,NaN,bird5-bird1.png
inception_v1,1,283,NaN,bicycle,bird,NaN,bird5-car2.png
inception_v1,1,284,NaN,cat,bird,NaN,bird5-cat2.png
inception_v1,1,285,NaN,bicycle,bird,NaN,bird5-chair1.png
inception_v1,1,286,NaN,dog,bird,NaN,bird5-dog2.png
inception_v1,1,287,NaN,keyboard,bird,NaN,bird5-keyboard2.png
inception_v1,1,288,NaN,keyboard,bird,NaN,bird5-oven3.png
inception_v1,1,289,NaN,bicycle,bird,NaN,bird5-truck2.png
inception_v1,1,290,NaN,airplane,bird,NaN,bird6-airplane2.png
inception_v1,1,291,NaN,car,bird,NaN,bird6-boat2.png
inception_v1,1,292,NaN,bottle,bird,NaN,bird6-bottle3.png
inception_v1,1,293,NaN,bicycle,bird,NaN,bird6-car3.png
inception_v1,1,294,NaN,elephant,bird,NaN,bird6-elephant2.png
inception_v1,1,295,NaN,clock,bird,NaN,bird6-oven1.png
inception_v1,1,296,NaN,bicycle,bird,NaN,bird6-truck2.png
inception_v1,1,297,NaN,bird,bird,NaN,bird7-bird2.png
inception_v1,1,298,NaN,airplane,bird,NaN,bird7-boat1.png
inception_v1,1,299,NaN,bottle,bird,NaN,bird7-bottle1.png
inception_v1,1,300,NaN,bicycle,bird,NaN,bird7-car2.png
inception_v1,1,301,NaN,elephant,bird,NaN,bird7-cat3.png
inception_v1,1,302,NaN,car,bird,NaN,bird7-keyboard3.png
inception_v1,1,303,NaN,clock,bird,NaN,bird7-knife2.png
inception_v1,1,304,NaN,keyboard,bird,NaN,bird7-oven3.png
inception_v1,1,305,NaN,truck,bird,NaN,bird7-truck2.png
inception_v1,1,306,NaN,airplane,bird,NaN,bird8-boat3.png
inception_v1,1,307,NaN,bottle,bird,NaN,bird8-bottle1.png
inception_v1,1,308,NaN,bicycle,bird,NaN,bird8-car2.png
inception_v1,1,309,NaN,knife,bird,NaN,bird8-chair1.png
inception_v1,1,310,NaN,bicycle,bird,NaN,bird8-clock1.png
inception_v1,1,311,NaN,elephant,bird,NaN,bird8-elephant1.png
inception_v1,1,312,NaN,clock,bird,NaN,bird8-keyboard2.png
inception_v1,1,313,NaN,chair,bird,NaN,bird8-knife2.png
inception_v1,1,314,NaN,bear,bird,NaN,bird9-bear3.png
inception_v1,1,315,NaN,bird,bird,NaN,bird9-bicycle3.png
inception_v1,1,316,NaN,bicycle,bird,NaN,bird9-bottle3.png
inception_v1,1,317,NaN,bicycle,bird,NaN,bird9-chair1.png
inception_v1,1,318,NaN,dog,bird,NaN,bird9-dog2.png
inception_v1,1,319,NaN,elephant,bird,NaN,bird9-elephant2.png
inception_v1,1,320,NaN,dog,bird,NaN,bird9-keyboard1.png
inception_v1,1,321,NaN,cat,boat,NaN,boat1-bear1.png
inception_v1,1,322,NaN,bottle,boat,NaN,boat1-bicycle2.png
inception_v1,1,323,NaN,bird,boat,NaN,boat1-bird3.png
inception_v1,1,324,NaN,bicycle,boat,NaN,boat1-car2.png
inception_v1,1,325,NaN,oven,boat,NaN,boat1-chair3.png
inception_v1,1,326,NaN,elephant,boat,NaN,boat1-elephant3.png
inception_v1,1,327,NaN,car,boat,NaN,boat1-keyboard3.png
inception_v1,1,328,NaN,clock,boat,NaN,boat1-oven1.png
inception_v1,1,329,NaN,knife,boat,NaN,boat1-truck3.png
inception_v1,1,330,NaN,bear,boat,NaN,boat10-bear3.png
inception_v1,1,331,NaN,clock,boat,NaN,boat10-boat3.png
inception_v1,1,332,NaN,cat,boat,NaN,boat10-cat1.png
inception_v1,1,333,NaN,bottle,boat,NaN,boat10-oven1.png
inception_v1,1,334,NaN,clock,boat,NaN,boat10-truck1.png
inception_v1,1,335,NaN,airplane,boat,NaN,boat2-airplane1.png
inception_v1,1,336,NaN,bear,boat,NaN,boat2-bear3.png
inception_v1,1,337,NaN,bird,boat,NaN,boat2-bird1.png
inception_v1,1,338,NaN,bottle,boat,NaN,boat2-bottle2.png
inception_v1,1,339,NaN,bottle,boat,NaN,boat2-keyboard1.png
inception_v1,1,340,NaN,car,boat,NaN,boat2-oven3.png
inception_v1,1,341,NaN,airplane,boat,NaN,boat3-airplane2.png
inception_v1,1,342,NaN,bottle,boat,NaN,boat3-bicycle2.png
inception_v1,1,343,NaN,clock,boat,NaN,boat3-car3.png
inception_v1,1,344,NaN,cat,boat,NaN,boat3-cat3.png
inception_v1,1,345,NaN,oven,boat,NaN,boat3-chair3.png
inception_v1,1,346,NaN,bicycle,boat,NaN,boat3-clock3.png
inception_v1,1,347,NaN,dog,boat,NaN,boat3-dog3.png
inception_v1,1,348,NaN,car,boat,NaN,boat3-keyboard2.png
inception_v1,1,349,NaN,bird,boat,NaN,boat4-bicycle3.png
inception_v1,1,350,NaN,bird,boat,NaN,boat4-bird1.png
inception_v1,1,351,NaN,car,boat,NaN,boat4-boat3.png
inception_v1,1,352,NaN,bottle,boat,NaN,boat4-bottle2.png
inception_v1,1,353,NaN,bicycle,boat,NaN,boat4-car3.png
inception_v1,1,354,NaN,oven,boat,NaN,boat4-chair2.png
inception_v1,1,355,NaN,dog,boat,NaN,boat4-dog2.png
inception_v1,1,356,NaN,elephant,boat,NaN,boat4-elephant2.png
inception_v1,1,357,NaN,clock,boat,NaN,boat4-knife2.png
inception_v1,1,358,NaN,airplane,boat,NaN,boat5-airplane1.png
inception_v1,1,359,NaN,bicycle,boat,NaN,boat5-bicycle3.png
inception_v1,1,360,NaN,airplane,boat,NaN,boat5-boat3.png
inception_v1,1,361,NaN,bicycle,boat,NaN,boat5-car3.png
inception_v1,1,362,NaN,bicycle,boat,NaN,boat5-clock3.png
inception_v1,1,363,NaN,car,boat,NaN,boat5-knife2.png
inception_v1,1,364,NaN,airplane,boat,NaN,boat6-airplane2.png
inception_v1,1,365,NaN,bear,boat,NaN,boat6-bear1.png
inception_v1,1,366,NaN,bottle,boat,NaN,boat6-bicycle2.png
inception_v1,1,367,NaN,bottle,boat,NaN,boat6-bottle2.png
inception_v1,1,368,NaN,clock,boat,NaN,boat6-car1.png
inception_v1,1,369,NaN,cat,boat,NaN,boat6-cat1.png
inception_v1,1,370,NaN,bicycle,boat,NaN,boat6-clock2.png
inception_v1,1,371,NaN,dog,boat,NaN,boat6-dog1.png
inception_v1,1,372,NaN,elephant,boat,NaN,boat6-elephant2.png
inception_v1,1,373,NaN,bicycle,boat,NaN,boat6-knife2.png
inception_v1,1,374,NaN,knife,boat,NaN,boat6-truck3.png
inception_v1,1,375,NaN,airplane,boat,NaN,boat7-boat2.png
inception_v1,1,376,NaN,bottle,boat,NaN,boat7-bottle1.png
inception_v1,1,377,NaN,cat,boat,NaN,boat7-cat3.png
inception_v1,1,378,NaN,bicycle,boat,NaN,boat7-chair1.png
inception_v1,1,379,NaN,clock,boat,NaN,boat7-clock3.png
inception_v1,1,380,NaN,elephant,boat,NaN,boat7-elephant3.png
inception_v1,1,381,NaN,bicycle,boat,NaN,boat7-keyboard3.png
inception_v1,1,382,NaN,keyboard,boat,NaN,boat7-oven3.png
inception_v1,1,383,NaN,bicycle,boat,NaN,boat7-truck2.png
inception_v1,1,384,NaN,bear,boat,NaN,boat8-bird2.png
inception_v1,1,385,NaN,bottle,boat,NaN,boat8-bottle1.png
inception_v1,1,386,NaN,dog,boat,NaN,boat8-dog3.png
inception_v1,1,387,NaN,elephant,boat,NaN,boat8-elephant1.png
inception_v1,1,388,NaN,clock,boat,NaN,boat8-knife1.png
inception_v1,1,389,NaN,boat,boat,NaN,boat8-oven1.png
inception_v1,1,390,NaN,clock,boat,NaN,boat8-truck2.png
inception_v1,1,391,NaN,airplane,boat,NaN,boat9-airplane2.png
inception_v1,1,392,NaN,bear,boat,NaN,boat9-bear3.png
inception_v1,1,393,NaN,bird,boat,NaN,boat9-bird1.png
inception_v1,1,394,NaN,car,boat,NaN,boat9-boat3.png
inception_v1,1,395,NaN,cat,boat,NaN,boat9-cat3.png
inception_v1,1,396,NaN,car,boat,NaN,boat9-chair2.png
inception_v1,1,397,NaN,bicycle,boat,NaN,boat9-clock1.png
inception_v1,1,398,NaN,dog,boat,NaN,boat9-dog2.png
inception_v1,1,399,NaN,bottle,boat,NaN,boat9-keyboard2.png
inception_v1,1,400,NaN,chair,boat,NaN,boat9-knife2.png
inception_v1,1,401,NaN,elephant,bottle,NaN,bottle1-bear1.png
inception_v1,1,402,NaN,truck,bottle,NaN,bottle1-bird3.png
inception_v1,1,403,NaN,clock,bottle,NaN,bottle1-car1.png
inception_v1,1,404,NaN,cat,bottle,NaN,bottle1-cat3.png
inception_v1,1,405,NaN,oven,bottle,NaN,bottle1-chair2.png
inception_v1,1,406,NaN,bicycle,bottle,NaN,bottle1-clock1.png
inception_v1,1,407,NaN,dog,bottle,NaN,bottle1-dog2.png
inception_v1,1,408,NaN,car,bottle,NaN,bottle1-keyboard3.png
inception_v1,1,409,NaN,bear,bottle,NaN,bottle10-bear2.png
inception_v1,1,410,NaN,bottle,bottle,NaN,bottle10-boat3.png
inception_v1,1,411,NaN,bottle,bottle,NaN,bottle10-car1.png
inception_v1,1,412,NaN,bicycle,bottle,NaN,bottle10-clock2.png
inception_v1,1,413,NaN,truck,bottle,NaN,bottle10-dog1.png
inception_v1,1,414,NaN,bottle,bottle,NaN,bottle10-truck3.png
inception_v1,1,415,NaN,bottle,bottle,NaN,bottle2-bottle3.png
inception_v1,1,416,NaN,bicycle,bottle,NaN,bottle2-car2.png
inception_v1,1,417,NaN,knife,bottle,NaN,bottle2-chair3.png
inception_v1,1,418,NaN,bicycle,bottle,NaN,bottle2-clock1.png
inception_v1,1,419,NaN,elephant,bottle,NaN,bottle2-elephant1.png
inception_v1,1,420,NaN,boat,bottle,NaN,bottle2-knife3.png
inception_v1,1,421,NaN,airplane,bottle,NaN,bottle3-airplane2.png
inception_v1,1,422,NaN,bear,bottle,NaN,bottle3-bear2.png
inception_v1,1,423,NaN,bottle,bottle,NaN,bottle3-bicycle3.png
inception_v1,1,424,NaN,bird,bottle,NaN,bottle3-bird1.png
inception_v1,1,425,NaN,airplane,bottle,NaN,bottle3-boat3.png
inception_v1,1,426,NaN,bottle,bottle,NaN,bottle3-bottle3.png
inception_v1,1,427,NaN,cat,bottle,NaN,bottle3-cat3.png
inception_v1,1,428,NaN,knife,bottle,NaN,bottle3-chair3.png
inception_v1,1,429,NaN,boat,bottle,NaN,bottle3-knife3.png
inception_v1,1,430,NaN,airplane,bottle,NaN,bottle4-airplane1.png
inception_v1,1,431,NaN,bottle,bottle,NaN,bottle4-bicycle1.png
inception_v1,1,432,NaN,bicycle,bottle,NaN,bottle4-car3.png
inception_v1,1,433,NaN,dog,bottle,NaN,bottle4-dog2.png
inception_v1,1,434,NaN,bottle,bottle,NaN,bottle4-oven2.png
inception_v1,1,435,NaN,clock,bottle,NaN,bottle4-truck1.png
inception_v1,1,436,NaN,airplane,bottle,NaN,bottle5-airplane1.png
inception_v1,1,437,NaN,truck,bottle,NaN,bottle5-bird3.png
inception_v1,1,438,NaN,bicycle,bottle,NaN,bottle5-boat1.png
inception_v1,1,439,NaN,dog,bottle,NaN,bottle5-cat1.png
inception_v1,1,440,NaN,oven,bottle,NaN,bottle5-chair1.png
inception_v1,1,441,NaN,bicycle,bottle,NaN,bottle5-clock3.png
inception_v1,1,442,NaN,elephant,bottle,NaN,bottle5-elephant1.png
inception_v1,1,443,NaN,keyboard,bottle,NaN,bottle5-keyboard2.png
inception_v1,1,444,NaN,bottle,bottle,NaN,bottle5-knife1.png
inception_v1,1,445,NaN,keyboard,bottle,NaN,bottle5-oven2.png
inception_v1,1,446,NaN,bottle,bottle,NaN,bottle5-truck1.png
inception_v1,1,447,NaN,boat,bottle,NaN,bottle6-airplane1.png
inception_v1,1,448,NaN,bear,bottle,NaN,bottle6-bear2.png
inception_v1,1,449,NaN,bottle,bottle,NaN,bottle6-bicycle3.png
inception_v1,1,450,NaN,bird,bottle,NaN,bottle6-bird1.png
inception_v1,1,451,NaN,bottle,bottle,NaN,bottle6-boat3.png
inception_v1,1,452,NaN,bottle,bottle,NaN,bottle6-bottle3.png
inception_v1,1,453,NaN,truck,bottle,NaN,bottle6-chair2.png
inception_v1,1,454,NaN,dog,bottle,NaN,bottle6-dog3.png
inception_v1,1,455,NaN,boat,bottle,NaN,bottle6-knife3.png
inception_v1,1,456,NaN,keyboard,bottle,NaN,bottle6-oven3.png
inception_v1,1,457,NaN,bicycle,bottle,NaN,bottle7-airplane3.png
inception_v1,1,458,NaN,bear,bottle,NaN,bottle7-bear1.png
inception_v1,1,459,NaN,airplane,bottle,NaN,bottle7-boat3.png
inception_v1,1,460,NaN,bear,bottle,NaN,bottle7-cat2.png
inception_v1,1,461,NaN,bicycle,bottle,NaN,bottle7-clock1.png
inception_v1,1,462,NaN,elephant,bottle,NaN,bottle7-elephant2.png
inception_v1,1,463,NaN,car,bottle,NaN,bottle7-keyboard2.png
inception_v1,1,464,NaN,bottle,bottle,NaN,bottle7-oven2.png
inception_v1,1,465,NaN,bicycle,bottle,NaN,bottle7-truck2.png
inception_v1,1,466,NaN,bottle,bottle,NaN,bottle8-bicycle1.png
inception_v1,1,467,NaN,bottle,bottle,NaN,bottle8-bird1.png
inception_v1,1,468,NaN,bottle,bottle,NaN,bottle8-bottle3.png
inception_v1,1,469,NaN,dog,bottle,NaN,bottle8-dog2.png
inception_v1,1,470,NaN,elephant,bottle,NaN,bottle8-elephant3.png
inception_v1,1,471,NaN,bottle,bottle,NaN,bottle8-keyboard3.png
inception_v1,1,472,NaN,bottle,bottle,NaN,bottle8-knife1.png
inception_v1,1,473,NaN,bottle,bottle,NaN,bottle9-bicycle1.png
inception_v1,1,474,NaN,bottle,bottle,NaN,bottle9-bottle1.png
inception_v1,1,475,NaN,truck,bottle,NaN,bottle9-car3.png
inception_v1,1,476,NaN,dog,bottle,NaN,bottle9-cat2.png
inception_v1,1,477,NaN,elephant,bottle,NaN,bottle9-elephant2.png
inception_v1,1,478,NaN,bottle,bottle,NaN,bottle9-keyboard1.png
inception_v1,1,479,NaN,bottle,bottle,NaN,bottle9-oven2.png
inception_v1,1,480,NaN,bottle,bottle,NaN,bottle9-truck1.png
inception_v1,1,481,NaN,airplane,car,NaN,car1-airplane1.png
inception_v1,1,482,NaN,bicycle,car,NaN,car1-car2.png
inception_v1,1,483,NaN,oven,car,NaN,car1-chair3.png
inception_v1,1,484,NaN,bicycle,car,NaN,car1-clock2.png
inception_v1,1,485,NaN,dog,car,NaN,car1-dog2.png
inception_v1,1,486,NaN,keyboard,car,NaN,car1-keyboard2.png
inception_v1,1,487,NaN,keyboard,car,NaN,car1-oven3.png
inception_v1,1,488,NaN,bottle,car,NaN,car10-bicycle2.png
inception_v1,1,489,NaN,bottle,car,NaN,car10-bottle3.png
inception_v1,1,490,NaN,clock,car,NaN,car10-car1.png
inception_v1,1,491,NaN,knife,car,NaN,car10-chair1.png
inception_v1,1,492,NaN,bear,car,NaN,car10-dog1.png
inception_v1,1,493,NaN,elephant,car,NaN,car10-elephant2.png
inception_v1,1,494,NaN,clock,car,NaN,car10-keyboard2.png
inception_v1,1,495,NaN,car,car,NaN,car2-bird3.png
inception_v1,1,496,NaN,clock,car,NaN,car2-car3.png
inception_v1,1,497,NaN,elephant,car,NaN,car2-cat3.png
inception_v1,1,498,NaN,knife,car,NaN,car2-chair1.png
inception_v1,1,499,NaN,boat,car,NaN,car2-knife3.png
inception_v1,1,500,NaN,airplane,car,NaN,car3-airplane3.png
inception_v1,1,501,NaN,clock,car,NaN,car3-bird2.png
inception_v1,1,502,NaN,airplane,car,NaN,car3-boat1.png
inception_v1,1,503,NaN,bottle,car,NaN,car3-bottle3.png
inception_v1,1,504,NaN,dog,car,NaN,car3-dog2.png
inception_v1,1,505,NaN,elephant,car,NaN,car3-elephant3.png
inception_v1,1,506,NaN,keyboard,car,NaN,car3-oven3.png
inception_v1,1,507,NaN,knife,car,NaN,car3-truck1.png
inception_v1,1,508,NaN,bear,car,NaN,car4-bear3.png
inception_v1,1,509,NaN,boat,car,NaN,car4-bicycle3.png
inception_v1,1,510,NaN,bird,car,NaN,car4-bird1.png
inception_v1,1,511,NaN,clock,car,NaN,car4-boat1.png
inception_v1,1,512,NaN,bottle,car,NaN,car4-bottle1.png
inception_v1,1,513,NaN,clock,car,NaN,car4-car2.png
inception_v1,1,514,NaN,car,car,NaN,car4-cat3.png
inception_v1,1,515,NaN,bicycle,car,NaN,car4-clock1.png
inception_v1,1,516,NaN,elephant,car,NaN,car4-elephant3.png
inception_v1,1,517,NaN,truck,car,NaN,car4-oven2.png
inception_v1,1,518,NaN,airplane,car,NaN,car5-airplane3.png
inception_v1,1,519,NaN,bear,car,NaN,car5-bear3.png
inception_v1,1,520,NaN,bicycle,car,NaN,car5-bottle1.png
inception_v1,1,521,NaN,dog,car,NaN,car5-cat1.png
inception_v1,1,522,NaN,clock,car,NaN,car5-keyboard3.png
inception_v1,1,523,NaN,clock,car,NaN,car5-knife2.png
inception_v1,1,524,NaN,keyboard,car,NaN,car5-oven2.png
inception_v1,1,525,NaN,clock,car,NaN,car5-truck3.png
inception_v1,1,526,NaN,bear,car,NaN,car6-bear1.png
inception_v1,1,527,NaN,oven,car,NaN,car6-bicycle3.png
inception_v1,1,528,NaN,chair,car,NaN,car6-boat1.png
inception_v1,1,529,NaN,bicycle,car,NaN,car6-bottle1.png
inception_v1,1,530,NaN,boat,car,NaN,car6-chair3.png
inception_v1,1,531,NaN,elephant,car,NaN,car6-elephant3.png
inception_v1,1,532,NaN,bicycle,car,NaN,car6-knife1.png
inception_v1,1,533,NaN,bicycle,car,NaN,car6-truck3.png
inception_v1,1,534,NaN,bicycle,car,NaN,car7-airplane2.png
inception_v1,1,535,NaN,bear,car,NaN,car7-bear1.png
inception_v1,1,536,NaN,car,car,NaN,car7-bird3.png
inception_v1,1,537,NaN,clock,car,NaN,car7-boat3.png
inception_v1,1,538,NaN,bicycle,car,NaN,car7-car1.png
inception_v1,1,539,NaN,bicycle,car,NaN,car7-clock1.png
inception_v1,1,540,NaN,dog,car,NaN,car7-dog3.png
inception_v1,1,541,NaN,elephant,car,NaN,car7-elephant3.png
inception_v1,1,542,NaN,clock,car,NaN,car7-keyboard3.png
inception_v1,1,543,NaN,clock,car,NaN,car7-oven2.png
inception_v1,1,544,NaN,airplane,car,NaN,car8-airplane3.png
inception_v1,1,545,NaN,bear,car,NaN,car8-bear1.png
inception_v1,1,546,NaN,bottle,car,NaN,car8-bicycle2.png
inception_v1,1,547,NaN,clock,car,NaN,car8-boat3.png
inception_v1,1,548,NaN,dog,car,NaN,car8-cat1.png
inception_v1,1,549,NaN,knife,car,NaN,car8-chair1.png
inception_v1,1,550,NaN,bicycle,car,NaN,car8-clock2.png
inception_v1,1,551,NaN,dog,car,NaN,car8-dog1.png
inception_v1,1,552,NaN,clock,car,NaN,car8-knife2.png
inception_v1,1,553,NaN,clock,car,NaN,car8-truck3.png
inception_v1,1,554,NaN,oven,car,NaN,car9-bicycle2.png
inception_v1,1,555,NaN,bird,car,NaN,car9-bird1.png
inception_v1,1,556,NaN,dog,car,NaN,car9-cat1.png
inception_v1,1,557,NaN,bicycle,car,NaN,car9-clock2.png
inception_v1,1,558,NaN,clock,car,NaN,car9-keyboard2.png
inception_v1,1,559,NaN,bicycle,car,NaN,car9-knife1.png
inception_v1,1,560,NaN,knife,car,NaN,car9-truck3.png
inception_v1,1,561,NaN,airplane,cat,NaN,cat1-airplane1.png
inception_v1,1,562,NaN,bird,cat,NaN,cat1-bird1.png
inception_v1,1,563,NaN,bicycle,cat,NaN,cat1-boat1.png
inception_v1,1,564,NaN,bicycle,cat,NaN,cat1-car2.png
inception_v1,1,565,NaN,cat,cat,NaN,cat1-cat3.png
inception_v1,1,566,NaN,oven,cat,NaN,cat1-chair2.png
inception_v1,1,567,NaN,cat,cat,NaN,cat1-dog1.png
inception_v1,1,568,NaN,bottle,cat,NaN,cat1-keyboard3.png
inception_v1,1,569,NaN,car,cat,NaN,cat1-oven1.png
inception_v1,1,570,NaN,airplane,cat,NaN,cat10-airplane3.png
inception_v1,1,571,NaN,cat,cat,NaN,cat10-bear1.png
inception_v1,1,572,NaN,bicycle,cat,NaN,cat10-bicycle1.png
inception_v1,1,573,NaN,cat,cat,NaN,cat10-bird2.png
inception_v1,1,574,NaN,bottle,cat,NaN,cat10-bottle1.png
inception_v1,1,575,NaN,bicycle,cat,NaN,cat10-clock1.png
inception_v1,1,576,NaN,elephant,cat,NaN,cat10-elephant3.png
inception_v1,1,577,NaN,keyboard,cat,NaN,cat10-keyboard1.png
inception_v1,1,578,NaN,clock,cat,NaN,cat10-oven2.png
inception_v1,1,579,NaN,airplane,cat,NaN,cat2-boat2.png
inception_v1,1,580,NaN,bicycle,cat,NaN,cat2-bottle3.png
inception_v1,1,581,NaN,bicycle,cat,NaN,cat2-car3.png
inception_v1,1,582,NaN,cat,cat,NaN,cat2-cat1.png
inception_v1,1,583,NaN,elephant,cat,NaN,cat2-elephant1.png
inception_v1,1,584,NaN,boat,cat,NaN,cat2-knife3.png
inception_v1,1,585,NaN,bicycle,cat,NaN,cat2-truck3.png
inception_v1,1,586,NaN,cat,cat,NaN,cat3-bear2.png
inception_v1,1,587,NaN,bicycle,cat,NaN,cat3-bicycle1.png
inception_v1,1,588,NaN,cat,cat,NaN,cat3-cat1.png
inception_v1,1,589,NaN,elephant,cat,NaN,cat3-elephant2.png
inception_v1,1,590,NaN,keyboard,cat,NaN,cat3-oven2.png
inception_v1,1,591,NaN,knife,cat,NaN,cat3-truck3.png
inception_v1,1,592,NaN,airplane,cat,NaN,cat4-airplane1.png
inception_v1,1,593,NaN,bird,cat,NaN,cat4-bird2.png
inception_v1,1,594,NaN,bicycle,cat,NaN,cat4-car2.png
inception_v1,1,595,NaN,cat,cat,NaN,cat4-cat3.png
inception_v1,1,596,NaN,oven,cat,NaN,cat4-chair2.png
inception_v1,1,597,NaN,bicycle,cat,NaN,cat4-clock2.png
inception_v1,1,598,NaN,dog,cat,NaN,cat4-dog3.png
inception_v1,1,599,NaN,car,cat,NaN,cat4-keyboard2.png
inception_v1,1,600,NaN,clock,cat,NaN,cat4-knife1.png
inception_v1,1,601,NaN,boat,cat,NaN,cat4-oven1.png
inception_v1,1,602,NaN,bicycle,cat,NaN,cat4-truck3.png
inception_v1,1,603,NaN,airplane,cat,NaN,cat5-airplane2.png
inception_v1,1,604,NaN,bear,cat,NaN,cat5-bear2.png
inception_v1,1,605,NaN,cat,cat,NaN,cat5-bicycle3.png
inception_v1,1,606,NaN,bicycle,cat,NaN,cat5-boat1.png
inception_v1,1,607,NaN,bottle,cat,NaN,cat5-bottle1.png
inception_v1,1,608,NaN,bicycle,cat,NaN,cat5-car2.png
inception_v1,1,609,NaN,knife,cat,NaN,cat5-chair3.png
inception_v1,1,610,NaN,cat,cat,NaN,cat5-dog3.png
inception_v1,1,611,NaN,elephant,cat,NaN,cat5-elephant2.png
inception_v1,1,612,NaN,bottle,cat,NaN,cat5-keyboard3.png
inception_v1,1,613,NaN,chair,cat,NaN,cat5-knife2.png
inception_v1,1,614,NaN,cat,cat,NaN,cat6-bear1.png
inception_v1,1,615,NaN,oven,cat,NaN,cat6-chair3.png
inception_v1,1,616,NaN,bicycle,cat,NaN,cat6-clock3.png
inception_v1,1,617,NaN,bottle,cat,NaN,cat6-keyboard3.png
inception_v1,1,618,NaN,car,cat,NaN,cat6-oven1.png
inception_v1,1,619,NaN,airplane,cat,NaN,cat7-airplane2.png
inception_v1,1,620,NaN,clock,cat,NaN,cat7-boat3.png
inception_v1,1,621,NaN,bottle,cat,NaN,cat7-bottle1.png
inception_v1,1,622,NaN,clock,cat,NaN,cat7-clock3.png
inception_v1,1,623,NaN,dog,cat,NaN,cat7-dog3.png
inception_v1,1,624,NaN,elephant,cat,NaN,cat7-elephant1.png
inception_v1,1,625,NaN,chair,cat,NaN,cat7-knife2.png
inception_v1,1,626,NaN,bicycle,cat,NaN,cat7-truck2.png
inception_v1,1,627,NaN,bear,cat,NaN,cat8-bear1.png
inception_v1,1,628,NaN,bird,cat,NaN,cat8-bicycle3.png
inception_v1,1,629,NaN,cat,cat,NaN,cat8-bird2.png
inception_v1,1,630,NaN,bicycle,cat,NaN,cat8-car2.png
inception_v1,1,631,NaN,bicycle,cat,NaN,cat9-bicycle1.png
inception_v1,1,632,NaN,dog,cat,NaN,cat9-bird3.png
inception_v1,1,633,NaN,airplane,cat,NaN,cat9-boat2.png
inception_v1,1,634,NaN,bottle,cat,NaN,cat9-bottle2.png
inception_v1,1,635,NaN,cat,cat,NaN,cat9-cat3.png
inception_v1,1,636,NaN,oven,cat,NaN,cat9-chair2.png
inception_v1,1,637,NaN,bottle,cat,NaN,cat9-clock2.png
inception_v1,1,638,NaN,dog,cat,NaN,cat9-dog2.png
inception_v1,1,639,NaN,airplane,cat,NaN,cat9-knife2.png
inception_v1,1,640,NaN,clock,cat,NaN,cat9-truck1.png
inception_v1,1,641,NaN,airplane,chair,NaN,chair1-airplane2.png
inception_v1,1,642,NaN,bear,chair,NaN,chair1-bear1.png
inception_v1,1,643,NaN,truck,chair,NaN,chair1-cat3.png
inception_v1,1,644,NaN,knife,chair,NaN,chair1-chair1.png
inception_v1,1,645,NaN,bicycle,chair,NaN,chair1-clock2.png
inception_v1,1,646,NaN,truck,chair,NaN,chair1-dog1.png
inception_v1,1,647,NaN,elephant,chair,NaN,chair1-elephant1.png
inception_v1,1,648,NaN,keyboard,chair,NaN,chair1-oven3.png
inception_v1,1,649,NaN,bicycle,chair,NaN,chair1-truck3.png
inception_v1,1,650,NaN,boat,chair,NaN,chair10-airplane2.png
inception_v1,1,651,NaN,bottle,chair,NaN,chair10-bicycle1.png
inception_v1,1,652,NaN,dog,chair,NaN,chair10-bird3.png
inception_v1,1,653,NaN,clock,chair,NaN,chair10-bottle3.png
inception_v1,1,654,NaN,bicycle,chair,NaN,chair10-car2.png
inception_v1,1,655,NaN,cat,chair,NaN,chair10-cat1.png
inception_v1,1,656,NaN,bicycle,chair,NaN,chair10-clock1.png
inception_v1,1,657,NaN,dog,chair,NaN,chair10-dog1.png
inception_v1,1,658,NaN,boat,chair,NaN,chair10-oven1.png
inception_v1,1,659,NaN,bear,chair,NaN,chair2-bear2.png
inception_v1,1,660,NaN,boat,chair,NaN,chair2-boat1.png
inception_v1,1,661,NaN,clock,chair,NaN,chair2-keyboard2.png
inception_v1,1,662,NaN,bottle,chair,NaN,chair2-knife1.png
inception_v1,1,663,NaN,airplane,chair,NaN,chair3-airplane2.png
inception_v1,1,664,NaN,oven,chair,NaN,chair3-bicycle3.png
inception_v1,1,665,NaN,bottle,chair,NaN,chair3-bottle3.png
inception_v1,1,666,NaN,bicycle,chair,NaN,chair3-car3.png
inception_v1,1,667,NaN,dog,chair,NaN,chair3-dog2.png
inception_v1,1,668,NaN,clock,chair,NaN,chair3-knife1.png
inception_v1,1,669,NaN,elephant,chair,NaN,chair4-bear2.png
inception_v1,1,670,NaN,cat,chair,NaN,chair4-cat2.png
inception_v1,1,671,NaN,oven,chair,NaN,chair4-chair3.png
inception_v1,1,672,NaN,keyboard,chair,NaN,chair4-keyboard2.png
inception_v1,1,673,NaN,keyboard,chair,NaN,chair4-oven2.png
inception_v1,1,674,NaN,bottle,chair,NaN,chair4-truck2.png
inception_v1,1,675,NaN,bicycle,chair,NaN,chair5-bicycle1.png
inception_v1,1,676,NaN,bird,chair,NaN,chair5-bird1.png
inception_v1,1,677,NaN,airplane,chair,NaN,chair5-boat3.png
inception_v1,1,678,NaN,bottle,chair,NaN,chair5-bottle3.png
inception_v1,1,679,NaN,bottle,chair,NaN,chair5-car1.png
inception_v1,1,680,NaN,car,chair,NaN,chair5-cat3.png
inception_v1,1,681,NaN,bicycle,chair,NaN,chair5-clock2.png
inception_v1,1,682,NaN,clock,chair,NaN,chair5-keyboard2.png
inception_v1,1,683,NaN,boat,chair,NaN,chair5-knife3.png
inception_v1,1,684,NaN,clock,chair,NaN,chair5-oven2.png
inception_v1,1,685,NaN,bicycle,chair,NaN,chair5-truck3.png
inception_v1,1,686,NaN,bottle,chair,NaN,chair6-bird2.png
inception_v1,1,687,NaN,dog,chair,NaN,chair6-dog1.png
inception_v1,1,688,NaN,elephant,chair,NaN,chair6-elephant2.png
inception_v1,1,689,NaN,bicycle,chair,NaN,chair6-truck2.png
inception_v1,1,690,NaN,airplane,chair,NaN,chair7-airplane1.png
inception_v1,1,691,NaN,bird,chair,NaN,chair7-bird1.png
inception_v1,1,692,NaN,airplane,chair,NaN,chair7-boat3.png
inception_v1,1,693,NaN,bottle,chair,NaN,chair7-bottle1.png
inception_v1,1,694,NaN,bicycle,chair,NaN,chair7-car2.png
inception_v1,1,695,NaN,truck,chair,NaN,chair7-cat1.png
inception_v1,1,696,NaN,knife,chair,NaN,chair7-chair1.png
inception_v1,1,697,NaN,clock,chair,NaN,chair7-clock3.png
inception_v1,1,698,NaN,elephant,chair,NaN,chair7-elephant1.png
inception_v1,1,699,NaN,bicycle,chair,NaN,chair7-knife2.png
inception_v1,1,700,NaN,oven,chair,NaN,chair7-truck3.png
inception_v1,1,701,NaN,boat,chair,NaN,chair8-airplane1.png
inception_v1,1,702,NaN,bear,chair,NaN,chair8-bear1.png
inception_v1,1,703,NaN,oven,chair,NaN,chair8-bicycle3.png
inception_v1,1,704,NaN,oven,chair,NaN,chair8-boat1.png
inception_v1,1,705,NaN,bicycle,chair,NaN,chair8-car1.png
inception_v1,1,706,NaN,oven,chair,NaN,chair8-chair3.png
inception_v1,1,707,NaN,bicycle,chair,NaN,chair8-clock3.png
inception_v1,1,708,NaN,elephant,chair,NaN,chair8-elephant1.png
inception_v1,1,709,NaN,car,chair,NaN,chair8-keyboard3.png
inception_v1,1,710,NaN,oven,chair,NaN,chair8-knife2.png
inception_v1,1,711,NaN,oven,chair,NaN,chair8-oven1.png
inception_v1,1,712,NaN,truck,chair,NaN,chair9-bear1.png
inception_v1,1,713,NaN,bottle,chair,NaN,chair9-bicycle3.png
inception_v1,1,714,NaN,bird,chair,NaN,chair9-bird3.png
inception_v1,1,715,NaN,airplane,chair,NaN,chair9-boat2.png
inception_v1,1,716,NaN,bottle,chair,NaN,chair9-bottle3.png
inception_v1,1,717,NaN,knife,chair,NaN,chair9-chair3.png
inception_v1,1,718,NaN,dog,chair,NaN,chair9-dog2.png
inception_v1,1,719,NaN,elephant,chair,NaN,chair9-elephant1.png
inception_v1,1,720,NaN,bottle,chair,NaN,chair9-keyboard2.png
inception_v1,1,721,NaN,bear,clock,NaN,clock1-bear1.png
inception_v1,1,722,NaN,car,clock,NaN,clock1-boat3.png
inception_v1,1,723,NaN,clock,clock,NaN,clock1-car1.png
inception_v1,1,724,NaN,bicycle,clock,NaN,clock1-clock2.png
inception_v1,1,725,NaN,truck,clock,NaN,clock1-dog2.png
inception_v1,1,726,NaN,elephant,clock,NaN,clock1-elephant2.png
inception_v1,1,727,NaN,knife,clock,NaN,clock1-truck3.png
inception_v1,1,728,NaN,airplane,clock,NaN,clock10-airplane1.png
inception_v1,1,729,NaN,bottle,clock,NaN,clock10-bird3.png
inception_v1,1,730,NaN,airplane,clock,NaN,clock10-boat2.png
inception_v1,1,731,NaN,bicycle,clock,NaN,clock10-bottle1.png
inception_v1,1,732,NaN,dog,clock,NaN,clock10-cat1.png
inception_v1,1,733,NaN,bicycle,clock,NaN,clock10-clock3.png
inception_v1,1,734,NaN,bear,clock,NaN,clock10-dog3.png
inception_v1,1,735,NaN,boat,clock,NaN,clock10-knife3.png
inception_v1,1,736,NaN,keyboard,clock,NaN,clock10-oven2.png
inception_v1,1,737,NaN,bicycle,clock,NaN,clock10-truck2.png
inception_v1,1,738,NaN,elephant,clock,NaN,clock2-bear2.png
inception_v1,1,739,NaN,keyboard,clock,NaN,clock2-bicycle1.png
inception_v1,1,740,NaN,keyboard,clock,NaN,clock2-bottle3.png
inception_v1,1,741,NaN,bicycle,clock,NaN,clock2-clock3.png
inception_v1,1,742,NaN,truck,clock,NaN,clock2-dog1.png
inception_v1,1,743,NaN,elephant,clock,NaN,clock2-elephant2.png
inception_v1,1,744,NaN,clock,clock,NaN,clock2-knife1.png
inception_v1,1,745,NaN,bear,clock,NaN,clock3-bear3.png
inception_v1,1,746,NaN,keyboard,clock,NaN,clock3-bicycle2.png
inception_v1,1,747,NaN,bird,clock,NaN,clock3-bird1.png
inception_v1,1,748,NaN,bicycle,clock,NaN,clock3-car2.png
inception_v1,1,749,NaN,car,clock,NaN,clock3-cat1.png
inception_v1,1,750,NaN,dog,clock,NaN,clock3-dog2.png
inception_v1,1,751,NaN,elephant,clock,NaN,clock3-elephant3.png
inception_v1,1,752,NaN,bottle,clock,NaN,clock3-keyboard3.png
inception_v1,1,753,NaN,airplane,clock,NaN,clock4-airplane1.png
inception_v1,1,754,NaN,car,clock,NaN,clock4-bird3.png
inception_v1,1,755,NaN,boat,clock,NaN,clock4-boat3.png
inception_v1,1,756,NaN,truck,clock,NaN,clock4-bottle3.png
inception_v1,1,757,NaN,bicycle,clock,NaN,clock4-car2.png
inception_v1,1,758,NaN,knife,clock,NaN,clock4-chair1.png
inception_v1,1,759,NaN,elephant,clock,NaN,clock4-elephant2.png
inception_v1,1,760,NaN,clock,clock,NaN,clock4-knife1.png
inception_v1,1,761,NaN,airplane,clock,NaN,clock4-oven1.png
inception_v1,1,762,NaN,airplane,clock,NaN,clock5-airplane1.png
inception_v1,1,763,NaN,bottle,clock,NaN,clock5-bicycle1.png
inception_v1,1,764,NaN,oven,clock,NaN,clock5-chair3.png
inception_v1,1,765,NaN,bicycle,clock,NaN,clock5-clock2.png
inception_v1,1,766,NaN,elephant,clock,NaN,clock5-elephant2.png
inception_v1,1,767,NaN,keyboard,clock,NaN,clock5-keyboard1.png
inception_v1,1,768,NaN,bottle,clock,NaN,clock5-oven1.png
inception_v1,1,769,NaN,airplane,clock,NaN,clock6-bicycle1.png
inception_v1,1,770,NaN,bicycle,clock,NaN,clock6-bird3.png
inception_v1,1,771,NaN,keyboard,clock,NaN,clock6-bottle1.png
inception_v1,1,772,NaN,bicycle,clock,NaN,clock6-car2.png
inception_v1,1,773,NaN,chair,clock,NaN,clock6-chair3.png
inception_v1,1,774,NaN,bicycle,clock,NaN,clock6-clock2.png
inception_v1,1,775,NaN,bottle,clock,NaN,clock6-knife2.png
inception_v1,1,776,NaN,bottle,clock,NaN,clock6-oven1.png
inception_v1,1,777,NaN,bottle,clock,NaN,clock6-truck3.png
inception_v1,1,778,NaN,elephant,clock,NaN,clock7-bear2.png
inception_v1,1,779,NaN,bicycle,clock,NaN,clock7-bicycle1.png
inception_v1,1,780,NaN,car,clock,NaN,clock7-boat3.png
inception_v1,1,781,NaN,keyboard,clock,NaN,clock7-bottle2.png
inception_v1,1,782,NaN,bicycle,clock,NaN,clock7-car1.png
inception_v1,1,783,NaN,cat,clock,NaN,clock7-cat2.png
inception_v1,1,784,NaN,truck,clock,NaN,clock7-dog2.png
inception_v1,1,785,NaN,bottle,clock,NaN,clock7-keyboard2.png
inception_v1,1,786,NaN,bicycle,clock,NaN,clock7-truck3.png
inception_v1,1,787,NaN,bicycle,clock,NaN,clock8-airplane2.png
inception_v1,1,788,NaN,bottle,clock,NaN,clock8-bear2.png
inception_v1,1,789,NaN,clock,clock,NaN,clock8-boat1.png
inception_v1,1,790,NaN,car,clock,NaN,clock8-cat1.png
inception_v1,1,791,NaN,car,clock,NaN,clock8-chair2.png
inception_v1,1,792,NaN,chair,clock,NaN,clock8-keyboard1.png
inception_v1,1,793,NaN,bicycle,clock,NaN,clock8-knife1.png
inception_v1,1,794,NaN,bottle,clock,NaN,clock8-oven3.png
inception_v1,1,795,NaN,bicycle,clock,NaN,clock8-truck2.png
inception_v1,1,796,NaN,airplane,clock,NaN,clock9-airplane1.png
inception_v1,1,797,NaN,keyboard,clock,NaN,clock9-bird2.png
inception_v1,1,798,NaN,cat,clock,NaN,clock9-cat1.png
inception_v1,1,799,NaN,oven,clock,NaN,clock9-chair3.png
inception_v1,1,800,NaN,car,clock,NaN,clock9-keyboard2.png
inception_v1,1,801,NaN,airplane,dog,NaN,dog1-airplane3.png
inception_v1,1,802,NaN,bear,dog,NaN,dog1-bear1.png
inception_v1,1,803,NaN,dog,dog,NaN,dog1-bird1.png
inception_v1,1,804,NaN,bicycle,dog,NaN,dog1-boat3.png
inception_v1,1,805,NaN,bicycle,dog,NaN,dog1-car2.png
inception_v1,1,806,NaN,dog,dog,NaN,dog1-cat3.png
inception_v1,1,807,NaN,knife,dog,NaN,dog1-chair1.png
inception_v1,1,808,NaN,dog,dog,NaN,dog1-dog2.png
inception_v1,1,809,NaN,boat,dog,NaN,dog1-knife3.png
inception_v1,1,810,NaN,airplane,dog,NaN,dog10-airplane1.png
inception_v1,1,811,NaN,bicycle,dog,NaN,dog10-bicycle1.png
inception_v1,1,812,NaN,truck,dog,NaN,dog10-bottle1.png
inception_v1,1,813,NaN,bottle,dog,NaN,dog10-car3.png
inception_v1,1,814,NaN,clock,dog,NaN,dog10-clock1.png
inception_v1,1,815,NaN,dog,dog,NaN,dog10-dog1.png
inception_v1,1,816,NaN,elephant,dog,NaN,dog10-elephant1.png
inception_v1,1,817,NaN,bottle,dog,NaN,dog10-keyboard2.png
inception_v1,1,818,NaN,clock,dog,NaN,dog10-oven2.png
inception_v1,1,819,NaN,bicycle,dog,NaN,dog10-truck2.png
inception_v1,1,820,NaN,airplane,dog,NaN,dog2-airplane2.png
inception_v1,1,821,NaN,bottle,dog,NaN,dog2-bicycle2.png
inception_v1,1,822,NaN,bottle,dog,NaN,dog2-bottle2.png
inception_v1,1,823,NaN,dog,dog,NaN,dog2-cat1.png
inception_v1,1,824,NaN,dog,dog,NaN,dog2-dog3.png
inception_v1,1,825,NaN,boat,dog,NaN,dog2-knife3.png
inception_v1,1,826,NaN,bear,dog,NaN,dog3-bear3.png
inception_v1,1,827,NaN,dog,dog,NaN,dog3-bird2.png
inception_v1,1,828,NaN,bicycle,dog,NaN,dog3-boat1.png
inception_v1,1,829,NaN,bicycle,dog,NaN,dog3-clock1.png
inception_v1,1,830,NaN,dog,dog,NaN,dog3-dog1.png
inception_v1,1,831,NaN,elephant,dog,NaN,dog3-elephant2.png
inception_v1,1,832,NaN,elephant,dog,NaN,dog3-keyboard1.png
inception_v1,1,833,NaN,dog,dog,NaN,dog3-knife3.png
inception_v1,1,834,NaN,clock,dog,NaN,dog3-truck2.png
inception_v1,1,835,NaN,airplane,dog,NaN,dog4-airplane3.png
inception_v1,1,836,NaN,bicycle,dog,NaN,dog4-bicycle1.png
inception_v1,1,837,NaN,bird,dog,NaN,dog4-bird1.png
inception_v1,1,838,NaN,bottle,dog,NaN,dog4-bottle2.png
inception_v1,1,839,NaN,dog,dog,NaN,dog4-cat3.png
inception_v1,1,840,NaN,oven,dog,NaN,dog4-chair1.png
inception_v1,1,841,NaN,clock,dog,NaN,dog4-clock1.png
inception_v1,1,842,NaN,elephant,dog,NaN,dog4-elephant2.png
inception_v1,1,843,NaN,keyboard,dog,NaN,dog4-keyboard2.png
inception_v1,1,844,NaN,clock,dog,NaN,dog4-oven1.png
inception_v1,1,845,NaN,bicycle,dog,NaN,dog4-truck2.png
inception_v1,1,846,NaN,dog,dog,NaN,dog5-bear3.png
inception_v1,1,847,NaN,truck,dog,NaN,dog5-boat3.png
inception_v1,1,848,NaN,bicycle,dog,NaN,dog5-car3.png
inception_v1,1,849,NaN,elephant,dog,NaN,dog5-elephant1.png
inception_v1,1,850,NaN,bicycle,dog,NaN,dog5-knife2.png
inception_v1,1,851,NaN,clock,dog,NaN,dog5-oven1.png
inception_v1,1,852,NaN,bicycle,dog,NaN,dog5-truck2.png
inception_v1,1,853,NaN,clock,dog,NaN,dog6-bicycle1.png
inception_v1,1,854,NaN,bird,dog,NaN,dog6-bird1.png
inception_v1,1,855,NaN,dog,dog,NaN,dog6-cat1.png
inception_v1,1,856,NaN,bicycle,dog,NaN,dog6-clock1.png
inception_v1,1,857,NaN,elephant,dog,NaN,dog6-elephant2.png
inception_v1,1,858,NaN,truck,dog,NaN,dog6-truck2.png
inception_v1,1,859,NaN,truck,dog,NaN,dog7-bird3.png
inception_v1,1,860,NaN,bicycle,dog,NaN,dog7-car2.png
inception_v1,1,861,NaN,oven,dog,NaN,dog7-chair2.png
inception_v1,1,862,NaN,keyboard,dog,NaN,dog7-keyboard3.png
inception_v1,1,863,NaN,boat,dog,NaN,dog7-knife3.png
inception_v1,1,864,NaN,clock,dog,NaN,dog7-oven2.png
inception_v1,1,865,NaN,bear,dog,NaN,dog8-bear3.png
inception_v1,1,866,NaN,knife,dog,NaN,dog8-boat3.png
inception_v1,1,867,NaN,bottle,dog,NaN,dog8-bottle2.png
inception_v1,1,868,NaN,knife,dog,NaN,dog8-chair3.png
inception_v1,1,869,NaN,bicycle,dog,NaN,dog8-clock2.png
inception_v1,1,870,NaN,dog,dog,NaN,dog8-dog3.png
inception_v1,1,871,NaN,car,dog,NaN,dog8-keyboard3.png
inception_v1,1,872,NaN,keyboard,dog,NaN,dog8-oven3.png
inception_v1,1,873,NaN,airplane,dog,NaN,dog9-airplane3.png
inception_v1,1,874,NaN,bear,dog,NaN,dog9-bear3.png
inception_v1,1,875,NaN,knife,dog,NaN,dog9-bicycle3.png
inception_v1,1,876,NaN,bicycle,dog,NaN,dog9-boat1.png
inception_v1,1,877,NaN,bottle,dog,NaN,dog9-bottle1.png
inception_v1,1,878,NaN,bicycle,dog,NaN,dog9-car1.png
inception_v1,1,879,NaN,dog,dog,NaN,dog9-cat1.png
inception_v1,1,880,NaN,boat,dog,NaN,dog9-chair2.png
inception_v1,1,881,NaN,airplane,elephant,NaN,elephant1-airplane2.png
inception_v1,1,882,NaN,elephant,elephant,NaN,elephant1-bear2.png
inception_v1,1,883,NaN,bicycle,elephant,NaN,elephant1-boat2.png
inception_v1,1,884,NaN,bottle,elephant,NaN,elephant1-bottle1.png
inception_v1,1,885,NaN,bicycle,elephant,NaN,elephant1-car3.png
inception_v1,1,886,NaN,knife,elephant,NaN,elephant1-chair1.png
inception_v1,1,887,NaN,dog,elephant,NaN,elephant1-dog2.png
inception_v1,1,888,NaN,car,elephant,NaN,elephant1-keyboard3.png
inception_v1,1,889,NaN,bottle,elephant,NaN,elephant1-oven2.png
inception_v1,1,890,NaN,bear,elephant,NaN,elephant10-bear1.png
inception_v1,1,891,NaN,elephant,elephant,NaN,elephant10-elephant1.png
inception_v1,1,892,NaN,bird,elephant,NaN,elephant10-keyboard1.png
inception_v1,1,893,NaN,boat,elephant,NaN,elephant10-knife3.png
inception_v1,1,894,NaN,bicycle,elephant,NaN,elephant2-airplane3.png
inception_v1,1,895,NaN,bear,elephant,NaN,elephant2-bear3.png
inception_v1,1,896,NaN,bird,elephant,NaN,elephant2-bird1.png
inception_v1,1,897,NaN,bicycle,elephant,NaN,elephant2-boat1.png
inception_v1,1,898,NaN,clock,elephant,NaN,elephant2-bottle3.png
inception_v1,1,899,NaN,dog,elephant,NaN,elephant2-cat1.png
inception_v1,1,900,NaN,clock,elephant,NaN,elephant2-clock1.png
inception_v1,1,901,NaN,elephant,elephant,NaN,elephant2-elephant3.png
inception_v1,1,902,NaN,car,elephant,NaN,elephant2-keyboard3.png
inception_v1,1,903,NaN,bicycle,elephant,NaN,elephant2-truck2.png
inception_v1,1,904,NaN,dog,elephant,NaN,elephant3-cat2.png
inception_v1,1,905,NaN,knife,elephant,NaN,elephant3-chair1.png
inception_v1,1,906,NaN,bottle,elephant,NaN,elephant3-keyboard2.png
inception_v1,1,907,NaN,clock,elephant,NaN,elephant3-knife1.png
inception_v1,1,908,NaN,bottle,elephant,NaN,elephant3-oven1.png
inception_v1,1,909,NaN,bottle,elephant,NaN,elephant3-truck1.png
inception_v1,1,910,NaN,bird,elephant,NaN,elephant4-bicycle2.png
inception_v1,1,911,NaN,bird,elephant,NaN,elephant4-bird1.png
inception_v1,1,912,NaN,airplane,elephant,NaN,elephant4-boat3.png
inception_v1,1,913,NaN,bottle,elephant,NaN,elephant4-car3.png
inception_v1,1,914,NaN,truck,elephant,NaN,elephant4-chair3.png
inception_v1,1,915,NaN,bicycle,elephant,NaN,elephant4-clock3.png
inception_v1,1,916,NaN,clock,elephant,NaN,elephant4-oven1.png
inception_v1,1,917,NaN,bear,elephant,NaN,elephant5-bear2.png
inception_v1,1,918,NaN,oven,elephant,NaN,elephant5-bicycle3.png
inception_v1,1,919,NaN,bottle,elephant,NaN,elephant5-bottle2.png
inception_v1,1,920,NaN,clock,elephant,NaN,elephant5-car1.png
inception_v1,1,921,NaN,airplane,elephant,NaN,elephant5-chair3.png
inception_v1,1,922,NaN,elephant,elephant,NaN,elephant5-elephant1.png
inception_v1,1,923,NaN,clock,elephant,NaN,elephant5-truck1.png
inception_v1,1,924,NaN,bicycle,elephant,NaN,elephant6-bicycle1.png
inception_v1,1,925,NaN,bird,elephant,NaN,elephant6-bird1.png
inception_v1,1,926,NaN,bottle,elephant,NaN,elephant6-bottle2.png
inception_v1,1,927,NaN,bicycle,elephant,NaN,elephant6-car3.png
inception_v1,1,928,NaN,cat,elephant,NaN,elephant6-cat2.png
inception_v1,1,929,NaN,dog,elephant,NaN,elephant6-dog2.png
inception_v1,1,930,NaN,elephant,elephant,NaN,elephant6-knife2.png
inception_v1,1,931,NaN,clock,elephant,NaN,elephant6-oven1.png
inception_v1,1,932,NaN,knife,elephant,NaN,elephant6-truck3.png
inception_v1,1,933,NaN,bicycle,elephant,NaN,elephant7-airplane3.png
inception_v1,1,934,NaN,bear,elephant,NaN,elephant7-bear3.png
inception_v1,1,935,NaN,bird,elephant,NaN,elephant7-bird1.png
inception_v1,1,936,NaN,clock,elephant,NaN,elephant7-bottle3.png
inception_v1,1,937,NaN,bicycle,elephant,NaN,elephant7-car3.png
inception_v1,1,938,NaN,dog,elephant,NaN,elephant7-cat1.png
inception_v1,1,939,NaN,bicycle,elephant,NaN,elephant7-clock2.png
inception_v1,1,940,NaN,dog,elephant,NaN,elephant7-dog1.png
inception_v1,1,941,NaN,car,elephant,NaN,elephant7-keyboard3.png
inception_v1,1,942,NaN,chair,elephant,NaN,elephant7-knife2.png
inception_v1,1,943,NaN,airplane,elephant,NaN,elephant8-airplane3.png
inception_v1,1,944,NaN,clock,elephant,NaN,elephant8-bicycle3.png
inception_v1,1,945,NaN,elephant,elephant,NaN,elephant8-bird2.png
inception_v1,1,946,NaN,airplane,elephant,NaN,elephant8-boat2.png
inception_v1,1,947,NaN,cat,elephant,NaN,elephant8-cat1.png
inception_v1,1,948,NaN,bicycle,elephant,NaN,elephant8-clock2.png
inception_v1,1,949,NaN,dog,elephant,NaN,elephant8-dog1.png
inception_v1,1,950,NaN,elephant,elephant,NaN,elephant8-elephant1.png
inception_v1,1,951,NaN,chair,elephant,NaN,elephant8-knife2.png
inception_v1,1,952,NaN,keyboard,elephant,NaN,elephant8-oven3.png
inception_v1,1,953,NaN,knife,elephant,NaN,elephant8-truck3.png
inception_v1,1,954,NaN,airplane,elephant,NaN,elephant9-airplane2.png
inception_v1,1,955,NaN,bottle,elephant,NaN,elephant9-bicycle2.png
inception_v1,1,956,NaN,airplane,elephant,NaN,elephant9-boat3.png
inception_v1,1,957,NaN,oven,elephant,NaN,elephant9-chair2.png
inception_v1,1,958,NaN,bicycle,elephant,NaN,elephant9-clock3.png
inception_v1,1,959,NaN,dog,elephant,NaN,elephant9-dog3.png
inception_v1,1,960,NaN,elephant,elephant,NaN,elephant9-elephant3.png
inception_v1,1,961,NaN,airplane,keyboard,NaN,keyboard1-airplane2.png
inception_v1,1,962,NaN,bear,keyboard,NaN,keyboard1-bear2.png
inception_v1,1,963,NaN,bear,keyboard,NaN,keyboard1-bird2.png
inception_v1,1,964,NaN,bicycle,keyboard,NaN,keyboard1-car3.png
inception_v1,1,965,NaN,knife,keyboard,NaN,keyboard1-chair2.png
inception_v1,1,966,NaN,bicycle,keyboard,NaN,keyboard1-clock1.png
inception_v1,1,967,NaN,dog,keyboard,NaN,keyboard1-dog3.png
inception_v1,1,968,NaN,elephant,keyboard,NaN,keyboard1-elephant3.png
inception_v1,1,969,NaN,airplane,keyboard,NaN,keyboard10-airplane3.png
inception_v1,1,970,NaN,airplane,keyboard,NaN,keyboard10-boat2.png
inception_v1,1,971,NaN,clock,keyboard,NaN,keyboard10-car1.png
inception_v1,1,972,NaN,boat,keyboard,NaN,keyboard10-keyboard1.png
inception_v1,1,973,NaN,keyboard,keyboard,NaN,keyboard10-oven3.png
inception_v1,1,974,NaN,oven,keyboard,NaN,keyboard10-truck1.png
inception_v1,1,975,NaN,bird,keyboard,NaN,keyboard2-bicycle3.png
inception_v1,1,976,NaN,bottle,keyboard,NaN,keyboard2-bottle1.png
inception_v1,1,977,NaN,bicycle,keyboard,NaN,keyboard2-clock1.png
inception_v1,1,978,NaN,elephant,keyboard,NaN,keyboard2-elephant1.png
inception_v1,1,979,NaN,clock,keyboard,NaN,keyboard2-knife1.png
inception_v1,1,980,NaN,bird,keyboard,NaN,keyboard3-bicycle2.png
inception_v1,1,981,NaN,bird,keyboard,NaN,keyboard3-bird3.png
inception_v1,1,982,NaN,car,keyboard,NaN,keyboard3-boat1.png
inception_v1,1,983,NaN,bicycle,keyboard,NaN,keyboard3-car2.png
inception_v1,1,984,NaN,dog,keyboard,NaN,keyboard3-cat1.png
inception_v1,1,985,NaN,clock,keyboard,NaN,keyboard3-clock3.png
inception_v1,1,986,NaN,elephant,keyboard,NaN,keyboard3-elephant2.png
inception_v1,1,987,NaN,bird,keyboard,NaN,keyboard4-bird1.png
inception_v1,1,988,NaN,bottle,keyboard,NaN,keyboard4-bottle2.png
inception_v1,1,989,NaN,bear,keyboard,NaN,keyboard4-cat2.png
inception_v1,1,990,NaN,bicycle,keyboard,NaN,keyboard4-clock2.png
inception_v1,1,991,NaN,bottle,keyboard,NaN,keyboard4-keyboard2.png
inception_v1,1,992,NaN,bottle,keyboard,NaN,keyboard4-knife2.png
inception_v1,1,993,NaN,clock,keyboard,NaN,keyboard4-oven2.png
inception_v1,1,994,NaN,boat,keyboard,NaN,keyboard4-truck3.png
inception_v1,1,995,NaN,knife,keyboard,NaN,keyboard5-airplane3.png
inception_v1,1,996,NaN,bear,keyboard,NaN,keyboard5-bear3.png
inception_v1,1,997,NaN,airplane,keyboard,NaN,keyboard5-bicycle1.png
inception_v1,1,998,NaN,clock,keyboard,NaN,keyboard5-bird3.png
inception_v1,1,999,NaN,bottle,keyboard,NaN,keyboard5-bottle1.png
inception_v1,1,1000,NaN,cat,keyboard,NaN,keyboard5-cat1.png
inception_v1,1,1001,NaN,dog,keyboard,NaN,keyboard5-dog3.png
inception_v1,1,1002,NaN,clock,keyboard,NaN,keyboard5-keyboard1.png
inception_v1,1,1003,NaN,chair,keyboard,NaN,keyboard5-knife2.png
inception_v1,1,1004,NaN,boat,keyboard,NaN,keyboard5-oven2.png
inception_v1,1,1005,NaN,bear,keyboard,NaN,keyboard6-bear2.png
inception_v1,1,1006,NaN,bicycle,keyboard,NaN,keyboard6-bicycle1.png
inception_v1,1,1007,NaN,airplane,keyboard,NaN,keyboard6-boat2.png
inception_v1,1,1008,NaN,bottle,keyboard,NaN,keyboard6-bottle2.png
inception_v1,1,1009,NaN,bicycle,keyboard,NaN,keyboard6-car2.png
inception_v1,1,1010,NaN,knife,keyboard,NaN,keyboard6-chair1.png
inception_v1,1,1011,NaN,dog,keyboard,NaN,keyboard6-dog2.png
inception_v1,1,1012,NaN,elephant,keyboard,NaN,keyboard6-elephant1.png
inception_v1,1,1013,NaN,chair,keyboard,NaN,keyboard6-knife2.png
inception_v1,1,1014,NaN,bear,keyboard,NaN,keyboard7-bear2.png
inception_v1,1,1015,NaN,airplane,keyboard,NaN,keyboard7-boat2.png
inception_v1,1,1016,NaN,bottle,keyboard,NaN,keyboard7-bottle1.png
inception_v1,1,1017,NaN,bicycle,keyboard,NaN,keyboard7-car3.png
inception_v1,1,1018,NaN,knife,keyboard,NaN,keyboard7-chair3.png
inception_v1,1,1019,NaN,bicycle,keyboard,NaN,keyboard7-clock3.png
inception_v1,1,1020,NaN,bear,keyboard,NaN,keyboard7-dog1.png
inception_v1,1,1021,NaN,boat,keyboard,NaN,keyboard7-knife1.png
inception_v1,1,1022,NaN,knife,keyboard,NaN,keyboard7-oven2.png
inception_v1,1,1023,NaN,bicycle,keyboard,NaN,keyboard7-truck2.png
inception_v1,1,1024,NaN,knife,keyboard,NaN,keyboard8-airplane2.png
inception_v1,1,1025,NaN,cat,keyboard,NaN,keyboard8-cat3.png
inception_v1,1,1026,NaN,boat,keyboard,NaN,keyboard8-chair2.png
inception_v1,1,1027,NaN,dog,keyboard,NaN,keyboard8-dog3.png
inception_v1,1,1028,NaN,clock,keyboard,NaN,keyboard8-keyboard2.png
inception_v1,1,1029,NaN,knife,keyboard,NaN,keyboard8-oven1.png
inception_v1,1,1030,NaN,knife,keyboard,NaN,keyboard8-truck3.png
inception_v1,1,1031,NaN,knife,keyboard,NaN,keyboard9-airplane3.png
inception_v1,1,1032,NaN,bear,keyboard,NaN,keyboard9-bear2.png
inception_v1,1,1033,NaN,bird,keyboard,NaN,keyboard9-bicycle2.png
inception_v1,1,1034,NaN,bird,keyboard,NaN,keyboard9-bird1.png
inception_v1,1,1035,NaN,bicycle,keyboard,NaN,keyboard9-boat2.png
inception_v1,1,1036,NaN,cat,keyboard,NaN,keyboard9-cat1.png
inception_v1,1,1037,NaN,chair,keyboard,NaN,keyboard9-chair2.png
inception_v1,1,1038,NaN,elephant,keyboard,NaN,keyboard9-elephant2.png
inception_v1,1,1039,NaN,keyboard,keyboard,NaN,keyboard9-keyboard2.png
inception_v1,1,1040,NaN,knife,keyboard,NaN,keyboard9-truck3.png
inception_v1,1,1041,NaN,airplane,knife,NaN,knife1-airplane1.png
inception_v1,1,1042,NaN,clock,knife,NaN,knife1-bird2.png
inception_v1,1,1043,NaN,bicycle,knife,NaN,knife1-car3.png
inception_v1,1,1044,NaN,bicycle,knife,NaN,knife1-chair1.png
inception_v1,1,1045,NaN,bottle,knife,NaN,knife1-clock2.png
inception_v1,1,1046,NaN,dog,knife,NaN,knife1-dog1.png
inception_v1,1,1047,NaN,elephant,knife,NaN,knife1-elephant1.png
inception_v1,1,1048,NaN,bottle,knife,NaN,knife1-keyboard3.png
inception_v1,1,1049,NaN,boat,knife,NaN,knife1-oven1.png
inception_v1,1,1050,NaN,bicycle,knife,NaN,knife1-truck2.png
inception_v1,1,1051,NaN,bear,knife,NaN,knife10-bear3.png
inception_v1,1,1052,NaN,knife,knife,NaN,knife10-chair1.png
inception_v1,1,1053,NaN,dog,knife,NaN,knife10-dog1.png
inception_v1,1,1054,NaN,elephant,knife,NaN,knife10-elephant3.png
inception_v1,1,1055,NaN,bottle,knife,NaN,knife10-keyboard3.png
inception_v1,1,1056,NaN,clock,knife,NaN,knife10-knife1.png
inception_v1,1,1057,NaN,keyboard,knife,NaN,knife10-oven3.png
inception_v1,1,1058,NaN,bear,knife,NaN,knife2-bear2.png
inception_v1,1,1059,NaN,bird,knife,NaN,knife2-bicycle3.png
inception_v1,1,1060,NaN,bird,knife,NaN,knife2-bird1.png
inception_v1,1,1061,NaN,bottle,knife,NaN,knife2-bottle2.png
inception_v1,1,1062,NaN,bicycle,knife,NaN,knife2-car3.png
inception_v1,1,1063,NaN,bird,knife,NaN,knife2-cat3.png
inception_v1,1,1064,NaN,dog,knife,NaN,knife2-dog1.png
inception_v1,1,1065,NaN,elephant,knife,NaN,knife2-elephant2.png
inception_v1,1,1066,NaN,bicycle,knife,NaN,knife2-truck2.png
inception_v1,1,1067,NaN,bear,knife,NaN,knife3-bear2.png
inception_v1,1,1068,NaN,cat,knife,NaN,knife3-cat1.png
inception_v1,1,1069,NaN,bicycle,knife,NaN,knife3-clock2.png
inception_v1,1,1070,NaN,car,knife,NaN,knife3-keyboard3.png
inception_v1,1,1071,NaN,bottle,knife,NaN,knife3-knife1.png
inception_v1,1,1072,NaN,airplane,knife,NaN,knife4-airplane3.png
inception_v1,1,1073,NaN,bear,knife,NaN,knife4-bear1.png
inception_v1,1,1074,NaN,bicycle,knife,NaN,knife4-boat1.png
inception_v1,1,1075,NaN,bicycle,knife,NaN,knife4-car2.png
inception_v1,1,1076,NaN,bear,knife,NaN,knife4-cat2.png
inception_v1,1,1077,NaN,bicycle,knife,NaN,knife4-clock3.png
inception_v1,1,1078,NaN,truck,knife,NaN,knife4-keyboard1.png
inception_v1,1,1079,NaN,clock,knife,NaN,knife4-knife2.png
inception_v1,1,1080,NaN,clock,knife,NaN,knife4-oven2.png
inception_v1,1,1081,NaN,bottle,knife,NaN,knife5-bicycle2.png
inception_v1,1,1082,NaN,dog,knife,NaN,knife5-cat2.png
inception_v1,1,1083,NaN,bicycle,knife,NaN,knife5-clock1.png
inception_v1,1,1084,NaN,dog,knife,NaN,knife5-dog1.png
inception_v1,1,1085,NaN,clock,knife,NaN,knife5-keyboard3.png
inception_v1,1,1086,NaN,boat,knife,NaN,knife5-knife3.png
inception_v1,1,1087,NaN,bottle,knife,NaN,knife5-oven2.png
inception_v1,1,1088,NaN,bottle,knife,NaN,knife5-truck3.png
inception_v1,1,1089,NaN,airplane,knife,NaN,knife6-airplane1.png
inception_v1,1,1090,NaN,bicycle,knife,NaN,knife6-bicycle1.png
inception_v1,1,1091,NaN,bird,knife,NaN,knife6-bird1.png
inception_v1,1,1092,NaN,airplane,knife,NaN,knife6-boat3.png
inception_v1,1,1093,NaN,bottle,knife,NaN,knife6-bottle3.png
inception_v1,1,1094,NaN,knife,knife,NaN,knife6-chair3.png
inception_v1,1,1095,NaN,bottle,knife,NaN,knife6-clock2.png
inception_v1,1,1096,NaN,dog,knife,NaN,knife6-dog2.png
inception_v1,1,1097,NaN,boat,knife,NaN,knife6-knife1.png
inception_v1,1,1098,NaN,truck,knife,NaN,knife6-oven3.png
inception_v1,1,1099,NaN,bicycle,knife,NaN,knife6-truck1.png
inception_v1,1,1100,NaN,chair,knife,NaN,knife7-airplane3.png
inception_v1,1,1101,NaN,bird,knife,NaN,knife7-bird3.png
inception_v1,1,1102,NaN,truck,knife,NaN,knife7-boat3.png
inception_v1,1,1103,NaN,bottle,knife,NaN,knife7-bottle3.png
inception_v1,1,1104,NaN,bicycle,knife,NaN,knife7-car2.png
inception_v1,1,1105,NaN,oven,knife,NaN,knife7-chair2.png
inception_v1,1,1106,NaN,elephant,knife,NaN,knife7-elephant2.png
inception_v1,1,1107,NaN,bicycle,knife,NaN,knife8-bicycle1.png
inception_v1,1,1108,NaN,chair,knife,NaN,knife8-boat1.png
inception_v1,1,1109,NaN,bottle,knife,NaN,knife8-bottle3.png
inception_v1,1,1110,NaN,bicycle,knife,NaN,knife8-car2.png
inception_v1,1,1111,NaN,cat,knife,NaN,knife8-cat2.png
inception_v1,1,1112,NaN,truck,knife,NaN,knife8-truck3.png
inception_v1,1,1113,NaN,airplane,knife,NaN,knife9-airplane2.png
inception_v1,1,1114,NaN,bear,knife,NaN,knife9-bear3.png
inception_v1,1,1115,NaN,bottle,knife,NaN,knife9-bicycle1.png
inception_v1,1,1116,NaN,bird,knife,NaN,knife9-bird1.png
inception_v1,1,1117,NaN,airplane,knife,NaN,knife9-boat1.png
inception_v1,1,1118,NaN,bottle,knife,NaN,knife9-bottle2.png
inception_v1,1,1119,NaN,knife,knife,NaN,knife9-chair1.png
inception_v1,1,1120,NaN,elephant,knife,NaN,knife9-elephant2.png
inception_v1,1,1121,NaN,knife,oven,NaN,oven1-bird3.png
inception_v1,1,1122,NaN,airplane,oven,NaN,oven1-boat3.png
inception_v1,1,1123,NaN,cat,oven,NaN,oven1-cat1.png
inception_v1,1,1124,NaN,clock,oven,NaN,oven1-clock3.png
inception_v1,1,1125,NaN,cat,oven,NaN,oven1-dog3.png
inception_v1,1,1126,NaN,airplane,oven,NaN,oven10-airplane2.png
inception_v1,1,1127,NaN,bear,oven,NaN,oven10-bear1.png
inception_v1,1,1128,NaN,bottle,oven,NaN,oven10-bicycle1.png
inception_v1,1,1129,NaN,airplane,oven,NaN,oven10-boat2.png
inception_v1,1,1130,NaN,bear,oven,NaN,oven10-cat2.png
inception_v1,1,1131,NaN,keyboard,oven,NaN,oven10-oven3.png
inception_v1,1,1132,NaN,truck,oven,NaN,oven10-truck2.png
inception_v1,1,1133,NaN,bear,oven,NaN,oven2-bear3.png
inception_v1,1,1134,NaN,clock,oven,NaN,oven2-bicycle1.png
inception_v1,1,1135,NaN,truck,oven,NaN,oven2-bird2.png
inception_v1,1,1136,NaN,knife,oven,NaN,oven2-boat3.png
inception_v1,1,1137,NaN,bicycle,oven,NaN,oven2-bottle1.png
inception_v1,1,1138,NaN,clock,oven,NaN,oven2-car1.png
inception_v1,1,1139,NaN,knife,oven,NaN,oven2-chair1.png
inception_v1,1,1140,NaN,cat,oven,NaN,oven2-dog3.png
inception_v1,1,1141,NaN,keyboard,oven,NaN,oven2-oven3.png
inception_v1,1,1142,NaN,knife,oven,NaN,oven2-truck3.png
inception_v1,1,1143,NaN,airplane,oven,NaN,oven3-airplane1.png
inception_v1,1,1144,NaN,truck,oven,NaN,oven3-bear2.png
inception_v1,1,1145,NaN,airplane,oven,NaN,oven3-boat3.png
inception_v1,1,1146,NaN,clock,oven,NaN,oven3-bottle3.png
inception_v1,1,1147,NaN,clock,oven,NaN,oven3-car2.png
inception_v1,1,1148,NaN,dog,oven,NaN,oven3-cat2.png
inception_v1,1,1149,NaN,bicycle,oven,NaN,oven3-clock3.png
inception_v1,1,1150,NaN,elephant,oven,NaN,oven3-elephant3.png
inception_v1,1,1151,NaN,clock,oven,NaN,oven3-knife1.png
inception_v1,1,1152,NaN,truck,oven,NaN,oven3-truck1.png
inception_v1,1,1153,NaN,oven,oven,NaN,oven4-bicycle2.png
inception_v1,1,1154,NaN,bottle,oven,NaN,oven4-bottle2.png
inception_v1,1,1155,NaN,boat,oven,NaN,oven4-car1.png
inception_v1,1,1156,NaN,knife,oven,NaN,oven4-chair1.png
inception_v1,1,1157,NaN,bicycle,oven,NaN,oven4-clock2.png
inception_v1,1,1158,NaN,dog,oven,NaN,oven4-dog1.png
inception_v1,1,1159,NaN,elephant,oven,NaN,oven4-elephant3.png
inception_v1,1,1160,NaN,clock,oven,NaN,oven4-keyboard3.png
inception_v1,1,1161,NaN,boat,oven,NaN,oven4-knife2.png
inception_v1,1,1162,NaN,clock,oven,NaN,oven4-truck3.png
inception_v1,1,1163,NaN,boat,oven,NaN,oven5-airplane1.png
inception_v1,1,1164,NaN,clock,oven,NaN,oven5-bicycle1.png
inception_v1,1,1165,NaN,bird,oven,NaN,oven5-bird1.png
inception_v1,1,1166,NaN,clock,oven,NaN,oven5-bottle3.png
inception_v1,1,1167,NaN,cat,oven,NaN,oven5-dog3.png
inception_v1,1,1168,NaN,elephant,oven,NaN,oven5-elephant1.png
inception_v1,1,1169,NaN,keyboard,oven,NaN,oven5-keyboard2.png
inception_v1,1,1170,NaN,bicycle,oven,NaN,oven6-airplane3.png
inception_v1,1,1171,NaN,elephant,oven,NaN,oven6-bear2.png
inception_v1,1,1172,NaN,oven,oven,NaN,oven6-bicycle1.png
inception_v1,1,1173,NaN,bird,oven,NaN,oven6-bird1.png
inception_v1,1,1174,NaN,oven,oven,NaN,oven6-chair3.png
inception_v1,1,1175,NaN,elephant,oven,NaN,oven6-elephant2.png
inception_v1,1,1176,NaN,boat,oven,NaN,oven6-knife3.png
inception_v1,1,1177,NaN,keyboard,oven,NaN,oven6-oven3.png
inception_v1,1,1178,NaN,clock,oven,NaN,oven6-truck1.png
inception_v1,1,1179,NaN,bottle,oven,NaN,oven7-bottle1.png
inception_v1,1,1180,NaN,oven,oven,NaN,oven7-car3.png
inception_v1,1,1181,NaN,truck,oven,NaN,oven7-cat1.png
inception_v1,1,1182,NaN,bicycle,oven,NaN,oven7-clock2.png
inception_v1,1,1183,NaN,dog,oven,NaN,oven7-dog2.png
inception_v1,1,1184,NaN,elephant,oven,NaN,oven7-elephant1.png
inception_v1,1,1185,NaN,boat,oven,NaN,oven7-keyboard1.png
inception_v1,1,1186,NaN,boat,oven,NaN,oven7-oven1.png
inception_v1,1,1187,NaN,dog,oven,NaN,oven8-cat3.png
inception_v1,1,1188,NaN,knife,oven,NaN,oven8-chair1.png
inception_v1,1,1189,NaN,clock,oven,NaN,oven8-keyboard3.png
inception_v1,1,1190,NaN,clock,oven,NaN,oven8-knife2.png
inception_v1,1,1191,NaN,bicycle,oven,NaN,oven9-airplane2.png
inception_v1,1,1192,NaN,bear,oven,NaN,oven9-bear2.png
inception_v1,1,1193,NaN,clock,oven,NaN,oven9-bird3.png
inception_v1,1,1194,NaN,truck,oven,NaN,oven9-boat2.png
inception_v1,1,1195,NaN,bicycle,oven,NaN,oven9-car2.png
inception_v1,1,1196,NaN,knife,oven,NaN,oven9-chair1.png
inception_v1,1,1197,NaN,bicycle,oven,NaN,oven9-clock2.png
inception_v1,1,1198,NaN,keyboard,oven,NaN,oven9-keyboard1.png
inception_v1,1,1199,NaN,boat,oven,NaN,oven9-knife3.png
inception_v1,1,1200,NaN,clock,oven,NaN,oven9-oven1.png
inception_v1,1,1201,NaN,bear,truck,NaN,truck1-bear1.png
inception_v1,1,1202,NaN,oven,truck,NaN,truck1-bicycle3.png
inception_v1,1,1203,NaN,bird,truck,NaN,truck1-bird1.png
inception_v1,1,1204,NaN,chair,truck,NaN,truck1-car3.png
inception_v1,1,1205,NaN,cat,truck,NaN,truck1-cat1.png
inception_v1,1,1206,NaN,chair,truck,NaN,truck1-chair2.png
inception_v1,1,1207,NaN,clock,truck,NaN,truck1-clock3.png
inception_v1,1,1208,NaN,bear,truck,NaN,truck1-dog1.png
inception_v1,1,1209,NaN,bicycle,truck,NaN,truck1-knife1.png
inception_v1,1,1210,NaN,airplane,truck,NaN,truck10-airplane1.png
inception_v1,1,1211,NaN,bicycle,truck,NaN,truck10-bicycle1.png
inception_v1,1,1212,NaN,clock,truck,NaN,truck10-car3.png
inception_v1,1,1213,NaN,bicycle,truck,NaN,truck10-clock1.png
inception_v1,1,1214,NaN,elephant,truck,NaN,truck10-elephant3.png
inception_v1,1,1215,NaN,knife,truck,NaN,truck10-truck3.png
inception_v1,1,1216,NaN,airplane,truck,NaN,truck2-airplane3.png
inception_v1,1,1217,NaN,truck,truck,NaN,truck2-bicycle2.png
inception_v1,1,1218,NaN,clock,truck,NaN,truck2-bird2.png
inception_v1,1,1219,NaN,clock,truck,NaN,truck2-boat3.png
inception_v1,1,1220,NaN,clock,truck,NaN,truck2-bottle3.png
inception_v1,1,1221,NaN,clock,truck,NaN,truck2-car3.png
inception_v1,1,1222,NaN,knife,truck,NaN,truck2-chair1.png
inception_v1,1,1223,NaN,bicycle,truck,NaN,truck2-clock1.png
inception_v1,1,1224,NaN,elephant,truck,NaN,truck2-elephant1.png
inception_v1,1,1225,NaN,clock,truck,NaN,truck2-keyboard1.png
inception_v1,1,1226,NaN,keyboard,truck,NaN,truck2-oven3.png
inception_v1,1,1227,NaN,bird,truck,NaN,truck3-bear3.png
inception_v1,1,1228,NaN,bicycle,truck,NaN,truck3-bicycle1.png
inception_v1,1,1229,NaN,clock,truck,NaN,truck3-bird2.png
inception_v1,1,1230,NaN,bicycle,truck,NaN,truck3-car3.png
inception_v1,1,1231,NaN,cat,truck,NaN,truck3-cat1.png
inception_v1,1,1232,NaN,oven,truck,NaN,truck3-chair2.png
inception_v1,1,1233,NaN,bicycle,truck,NaN,truck3-clock3.png
inception_v1,1,1234,NaN,bear,truck,NaN,truck3-dog3.png
inception_v1,1,1235,NaN,clock,truck,NaN,truck3-keyboard3.png
inception_v1,1,1236,NaN,clock,truck,NaN,truck3-knife2.png
inception_v1,1,1237,NaN,clock,truck,NaN,truck3-oven2.png
inception_v1,1,1238,NaN,bicycle,truck,NaN,truck4-airplane3.png
inception_v1,1,1239,NaN,bear,truck,NaN,truck4-bear1.png
inception_v1,1,1240,NaN,truck,truck,NaN,truck4-boat3.png
inception_v1,1,1241,NaN,bottle,truck,NaN,truck4-bottle2.png
inception_v1,1,1242,NaN,bicycle,truck,NaN,truck4-knife1.png
inception_v1,1,1243,NaN,clock,truck,NaN,truck4-oven2.png
inception_v1,1,1244,NaN,airplane,truck,NaN,truck5-airplane2.png
inception_v1,1,1245,NaN,clock,truck,NaN,truck5-bird2.png
inception_v1,1,1246,NaN,clock,truck,NaN,truck5-car1.png
inception_v1,1,1247,NaN,car,truck,NaN,truck5-cat3.png
inception_v1,1,1248,NaN,dog,truck,NaN,truck5-dog3.png
inception_v1,1,1249,NaN,clock,truck,NaN,truck5-keyboard1.png
inception_v1,1,1250,NaN,boat,truck,NaN,truck5-knife3.png
inception_v1,1,1251,NaN,knife,truck,NaN,truck5-truck1.png
inception_v1,1,1252,NaN,bear,truck,NaN,truck6-bear2.png
inception_v1,1,1253,NaN,bicycle,truck,NaN,truck6-bicycle1.png
inception_v1,1,1254,NaN,chair,truck,NaN,truck6-boat2.png
inception_v1,1,1255,NaN,bottle,truck,NaN,truck6-bottle3.png
inception_v1,1,1256,NaN,cat,truck,NaN,truck6-cat2.png
inception_v1,1,1257,NaN,bicycle,truck,NaN,truck6-clock2.png
inception_v1,1,1258,NaN,dog,truck,NaN,truck6-dog2.png
inception_v1,1,1259,NaN,clock,truck,NaN,truck6-knife2.png
inception_v1,1,1260,NaN,keyboard,truck,NaN,truck6-oven3.png
inception_v1,1,1261,NaN,bicycle,truck,NaN,truck6-truck2.png
inception_v1,1,1262,NaN,bear,truck,NaN,truck7-bear2.png
inception_v1,1,1263,NaN,clock,truck,NaN,truck7-bird2.png
inception_v1,1,1264,NaN,airplane,truck,NaN,truck7-boat1.png
inception_v1,1,1265,NaN,knife,truck,NaN,truck7-chair2.png
inception_v1,1,1266,NaN,elephant,truck,NaN,truck7-elephant2.png
inception_v1,1,1267,NaN,clock,truck,NaN,truck7-keyboard3.png
inception_v1,1,1268,NaN,clock,truck,NaN,truck7-oven2.png
inception_v1,1,1269,NaN,clock,truck,NaN,truck7-truck2.png
inception_v1,1,1270,NaN,bottle,truck,NaN,truck8-bottle2.png
inception_v1,1,1271,NaN,cat,truck,NaN,truck8-cat2.png
inception_v1,1,1272,NaN,dog,truck,NaN,truck8-dog3.png
inception_v1,1,1273,NaN,elephant,truck,NaN,truck8-elephant1.png
inception_v1,1,1274,NaN,clock,truck,NaN,truck8-keyboard2.png
inception_v1,1,1275,NaN,airplane,truck,NaN,truck9-airplane2.png
inception_v1,1,1276,NaN,clock,truck,NaN,truck9-boat3.png
inception_v1,1,1277,NaN,bottle,truck,NaN,truck9-bottle2.png
inception_v1,1,1278,NaN,clock,truck,NaN,truck9-chair3.png
inception_v1,1,1279,NaN,elephant,truck,NaN,truck9-elephant1.png
inception_v1,1,1280,NaN,knife,truck,NaN,truck9-truck3.png
