subj,session,trial,rt,object_response,category,condition,imagename
autoencoder_vit_b,1,1,NaN,airplane,airplane,NaN,airplane1-bicycle2.png
autoencoder_vit_b,1,2,NaN,oven,airplane,NaN,airplane1-chair2.png
autoencoder_vit_b,1,3,NaN,airplane,airplane,NaN,airplane1-clock1.png
autoencoder_vit_b,1,4,NaN,airplane,airplane,NaN,airplane1-elephant1.png
autoencoder_vit_b,1,5,NaN,airplane,airplane,NaN,airplane10-airplane1.png
autoencoder_vit_b,1,6,NaN,oven,airplane,NaN,airplane10-bear3.png
autoencoder_vit_b,1,7,NaN,airplane,airplane,NaN,airplane10-boat3.png
autoencoder_vit_b,1,8,NaN,airplane,airplane,NaN,airplane10-car3.png
autoencoder_vit_b,1,9,NaN,airplane,airplane,NaN,airplane10-cat2.png
autoencoder_vit_b,1,10,NaN,airplane,airplane,NaN,airplane10-dog3.png
autoencoder_vit_b,1,11,NaN,airplane,airplane,NaN,airplane10-elephant1.png
autoencoder_vit_b,1,12,NaN,airplane,airplane,NaN,airplane10-knife3.png
autoencoder_vit_b,1,13,NaN,knife,airplane,NaN,airplane10-oven2.png
autoencoder_vit_b,1,14,NaN,airplane,airplane,NaN,airplane10-truck1.png
autoencoder_vit_b,1,15,NaN,oven,airplane,NaN,airplane2-bear1.png
autoencoder_vit_b,1,16,NaN,airplane,airplane,NaN,airplane2-bicycle1.png
autoencoder_vit_b,1,17,NaN,airplane,airplane,NaN,airplane2-bird3.png
autoencoder_vit_b,1,18,NaN,airplane,airplane,NaN,airplane2-bottle1.png
autoencoder_vit_b,1,19,NaN,airplane,airplane,NaN,airplane2-cat1.png
autoencoder_vit_b,1,20,NaN,airplane,airplane,NaN,airplane2-dog1.png
autoencoder_vit_b,1,21,NaN,airplane,airplane,NaN,airplane3-airplane2.png
autoencoder_vit_b,1,22,NaN,airplane,airplane,NaN,airplane3-car1.png
autoencoder_vit_b,1,23,NaN,airplane,airplane,NaN,airplane3-cat1.png
autoencoder_vit_b,1,24,NaN,airplane,airplane,NaN,airplane3-chair3.png
autoencoder_vit_b,1,25,NaN,airplane,airplane,NaN,airplane3-clock1.png
autoencoder_vit_b,1,26,NaN,airplane,airplane,NaN,airplane3-dog1.png
autoencoder_vit_b,1,27,NaN,airplane,airplane,NaN,airplane3-elephant1.png
autoencoder_vit_b,1,28,NaN,knife,airplane,NaN,airplane3-keyboard2.png
autoencoder_vit_b,1,29,NaN,airplane,airplane,NaN,airplane3-oven1.png
autoencoder_vit_b,1,30,NaN,airplane,airplane,NaN,airplane4-airplane1.png
autoencoder_vit_b,1,31,NaN,oven,airplane,NaN,airplane4-bear3.png
autoencoder_vit_b,1,32,NaN,airplane,airplane,NaN,airplane4-bicycle2.png
autoencoder_vit_b,1,33,NaN,airplane,airplane,NaN,airplane4-bird3.png
autoencoder_vit_b,1,34,NaN,airplane,airplane,NaN,airplane4-boat3.png
autoencoder_vit_b,1,35,NaN,airplane,airplane,NaN,airplane4-bottle1.png
autoencoder_vit_b,1,36,NaN,airplane,airplane,NaN,airplane4-car1.png
autoencoder_vit_b,1,37,NaN,oven,airplane,NaN,airplane4-cat3.png
autoencoder_vit_b,1,38,NaN,airplane,airplane,NaN,airplane4-dog2.png
autoencoder_vit_b,1,39,NaN,airplane,airplane,NaN,airplane4-elephant1.png
autoencoder_vit_b,1,40,NaN,knife,airplane,NaN,airplane4-keyboard3.png
autoencoder_vit_b,1,41,NaN,airplane,airplane,NaN,airplane4-knife1.png
autoencoder_vit_b,1,42,NaN,oven,airplane,NaN,airplane4-truck2.png
autoencoder_vit_b,1,43,NaN,airplane,airplane,NaN,airplane5-bear2.png
autoencoder_vit_b,1,44,NaN,airplane,airplane,NaN,airplane5-bicycle1.png
autoencoder_vit_b,1,45,NaN,airplane,airplane,NaN,airplane5-bird2.png
autoencoder_vit_b,1,46,NaN,airplane,airplane,NaN,airplane5-boat3.png
autoencoder_vit_b,1,47,NaN,airplane,airplane,NaN,airplane5-bottle3.png
autoencoder_vit_b,1,48,NaN,airplane,airplane,NaN,airplane5-chair3.png
autoencoder_vit_b,1,49,NaN,oven,airplane,NaN,airplane5-dog3.png
autoencoder_vit_b,1,50,NaN,airplane,airplane,NaN,airplane5-knife1.png
autoencoder_vit_b,1,51,NaN,airplane,airplane,NaN,airplane5-oven3.png
autoencoder_vit_b,1,52,NaN,oven,airplane,NaN,airplane6-bear3.png
autoencoder_vit_b,1,53,NaN,airplane,airplane,NaN,airplane6-bottle2.png
autoencoder_vit_b,1,54,NaN,airplane,airplane,NaN,airplane6-chair3.png
autoencoder_vit_b,1,55,NaN,knife,airplane,NaN,airplane6-keyboard3.png
autoencoder_vit_b,1,56,NaN,airplane,airplane,NaN,airplane6-knife1.png
autoencoder_vit_b,1,57,NaN,airplane,airplane,NaN,airplane7-airplane3.png
autoencoder_vit_b,1,58,NaN,airplane,airplane,NaN,airplane7-bird3.png
autoencoder_vit_b,1,59,NaN,airplane,airplane,NaN,airplane7-boat2.png
autoencoder_vit_b,1,60,NaN,airplane,airplane,NaN,airplane7-bottle3.png
autoencoder_vit_b,1,61,NaN,airplane,airplane,NaN,airplane7-car1.png
autoencoder_vit_b,1,62,NaN,oven,airplane,NaN,airplane7-cat3.png
autoencoder_vit_b,1,63,NaN,airplane,airplane,NaN,airplane7-clock3.png
autoencoder_vit_b,1,64,NaN,airplane,airplane,NaN,airplane7-keyboard1.png
autoencoder_vit_b,1,65,NaN,airplane,airplane,NaN,airplane7-truck1.png
autoencoder_vit_b,1,66,NaN,airplane,airplane,NaN,airplane8-bicycle3.png
autoencoder_vit_b,1,67,NaN,knife,airplane,NaN,airplane8-bird1.png
autoencoder_vit_b,1,68,NaN,oven,airplane,NaN,airplane8-chair1.png
autoencoder_vit_b,1,69,NaN,airplane,airplane,NaN,airplane8-clock2.png
autoencoder_vit_b,1,70,NaN,airplane,airplane,NaN,airplane8-elephant3.png
autoencoder_vit_b,1,71,NaN,airplane,airplane,NaN,airplane8-oven2.png
autoencoder_vit_b,1,72,NaN,oven,airplane,NaN,airplane8-truck3.png
autoencoder_vit_b,1,73,NaN,airplane,airplane,NaN,airplane9-airplane2.png
autoencoder_vit_b,1,74,NaN,airplane,airplane,NaN,airplane9-boat1.png
autoencoder_vit_b,1,75,NaN,oven,airplane,NaN,airplane9-car2.png
autoencoder_vit_b,1,76,NaN,airplane,airplane,NaN,airplane9-clock1.png
autoencoder_vit_b,1,77,NaN,knife,airplane,NaN,airplane9-keyboard2.png
autoencoder_vit_b,1,78,NaN,airplane,airplane,NaN,airplane9-knife3.png
autoencoder_vit_b,1,79,NaN,knife,airplane,NaN,airplane9-oven2.png
autoencoder_vit_b,1,80,NaN,airplane,airplane,NaN,airplane9-truck1.png
autoencoder_vit_b,1,81,NaN,airplane,bear,NaN,bear1-airplane3.png
autoencoder_vit_b,1,82,NaN,knife,bear,NaN,bear1-bear3.png
autoencoder_vit_b,1,83,NaN,car,bear,NaN,bear1-bicycle3.png
autoencoder_vit_b,1,84,NaN,airplane,bear,NaN,bear1-bird2.png
autoencoder_vit_b,1,85,NaN,knife,bear,NaN,bear1-chair2.png
autoencoder_vit_b,1,86,NaN,knife,bear,NaN,bear1-clock2.png
autoencoder_vit_b,1,87,NaN,airplane,bear,NaN,bear1-elephant1.png
autoencoder_vit_b,1,88,NaN,airplane,bear,NaN,bear10-bear2.png
autoencoder_vit_b,1,89,NaN,airplane,bear,NaN,bear10-bottle1.png
autoencoder_vit_b,1,90,NaN,oven,bear,NaN,bear10-car2.png
autoencoder_vit_b,1,91,NaN,airplane,bear,NaN,bear10-cat2.png
autoencoder_vit_b,1,92,NaN,oven,bear,NaN,bear10-chair2.png
autoencoder_vit_b,1,93,NaN,airplane,bear,NaN,bear10-clock1.png
autoencoder_vit_b,1,94,NaN,airplane,bear,NaN,bear10-elephant1.png
autoencoder_vit_b,1,95,NaN,knife,bear,NaN,bear10-keyboard3.png
autoencoder_vit_b,1,96,NaN,airplane,bear,NaN,bear10-knife2.png
autoencoder_vit_b,1,97,NaN,airplane,bear,NaN,bear10-oven1.png
autoencoder_vit_b,1,98,NaN,oven,bear,NaN,bear10-truck1.png
autoencoder_vit_b,1,99,NaN,airplane,bear,NaN,bear2-airplane1.png
autoencoder_vit_b,1,100,NaN,oven,bear,NaN,bear2-bird3.png
autoencoder_vit_b,1,101,NaN,oven,bear,NaN,bear2-car2.png
autoencoder_vit_b,1,102,NaN,airplane,bear,NaN,bear2-cat2.png
autoencoder_vit_b,1,103,NaN,oven,bear,NaN,bear2-dog1.png
autoencoder_vit_b,1,104,NaN,airplane,bear,NaN,bear2-elephant1.png
autoencoder_vit_b,1,105,NaN,knife,bear,NaN,bear2-keyboard2.png
autoencoder_vit_b,1,106,NaN,knife,bear,NaN,bear2-knife2.png
autoencoder_vit_b,1,107,NaN,airplane,bear,NaN,bear2-oven1.png
autoencoder_vit_b,1,108,NaN,knife,bear,NaN,bear3-airplane1.png
autoencoder_vit_b,1,109,NaN,airplane,bear,NaN,bear3-bicycle2.png
autoencoder_vit_b,1,110,NaN,knife,bear,NaN,bear3-bird3.png
autoencoder_vit_b,1,111,NaN,knife,bear,NaN,bear3-car2.png
autoencoder_vit_b,1,112,NaN,knife,bear,NaN,bear3-cat1.png
autoencoder_vit_b,1,113,NaN,knife,bear,NaN,bear3-chair2.png
autoencoder_vit_b,1,114,NaN,knife,bear,NaN,bear3-dog3.png
autoencoder_vit_b,1,115,NaN,knife,bear,NaN,bear3-keyboard2.png
autoencoder_vit_b,1,116,NaN,knife,bear,NaN,bear3-truck3.png
autoencoder_vit_b,1,117,NaN,airplane,bear,NaN,bear4-boat2.png
autoencoder_vit_b,1,118,NaN,airplane,bear,NaN,bear4-car3.png
autoencoder_vit_b,1,119,NaN,oven,bear,NaN,bear4-cat3.png
autoencoder_vit_b,1,120,NaN,airplane,bear,NaN,bear4-clock3.png
autoencoder_vit_b,1,121,NaN,oven,bear,NaN,bear4-elephant2.png
autoencoder_vit_b,1,122,NaN,knife,bear,NaN,bear4-keyboard3.png
autoencoder_vit_b,1,123,NaN,airplane,bear,NaN,bear4-knife1.png
autoencoder_vit_b,1,124,NaN,knife,bear,NaN,bear4-oven2.png
autoencoder_vit_b,1,125,NaN,oven,bear,NaN,bear4-truck3.png
autoencoder_vit_b,1,126,NaN,airplane,bear,NaN,bear5-airplane3.png
autoencoder_vit_b,1,127,NaN,airplane,bear,NaN,bear5-bicycle3.png
autoencoder_vit_b,1,128,NaN,knife,bear,NaN,bear5-bird1.png
autoencoder_vit_b,1,129,NaN,airplane,bear,NaN,bear5-boat2.png
autoencoder_vit_b,1,130,NaN,knife,bear,NaN,bear5-bottle1.png
autoencoder_vit_b,1,131,NaN,knife,bear,NaN,bear5-chair1.png
autoencoder_vit_b,1,132,NaN,airplane,bear,NaN,bear5-oven3.png
autoencoder_vit_b,1,133,NaN,oven,bear,NaN,bear6-bear1.png
autoencoder_vit_b,1,134,NaN,airplane,bear,NaN,bear6-bird2.png
autoencoder_vit_b,1,135,NaN,airplane,bear,NaN,bear6-boat3.png
autoencoder_vit_b,1,136,NaN,airplane,bear,NaN,bear6-bottle3.png
autoencoder_vit_b,1,137,NaN,oven,bear,NaN,bear6-car2.png
autoencoder_vit_b,1,138,NaN,oven,bear,NaN,bear6-cat3.png
autoencoder_vit_b,1,139,NaN,oven,bear,NaN,bear6-chair1.png
autoencoder_vit_b,1,140,NaN,airplane,bear,NaN,bear6-clock1.png
autoencoder_vit_b,1,141,NaN,knife,bear,NaN,bear7-bear2.png
autoencoder_vit_b,1,142,NaN,airplane,bear,NaN,bear7-bicycle2.png
autoencoder_vit_b,1,143,NaN,knife,bear,NaN,bear7-clock1.png
autoencoder_vit_b,1,144,NaN,knife,bear,NaN,bear7-dog3.png
autoencoder_vit_b,1,145,NaN,knife,bear,NaN,bear7-oven3.png
autoencoder_vit_b,1,146,NaN,knife,bear,NaN,bear7-truck1.png
autoencoder_vit_b,1,147,NaN,airplane,bear,NaN,bear8-airplane1.png
autoencoder_vit_b,1,148,NaN,knife,bear,NaN,bear8-bear1.png
autoencoder_vit_b,1,149,NaN,car,bear,NaN,bear8-bicycle3.png
autoencoder_vit_b,1,150,NaN,car,bear,NaN,bear8-boat2.png
autoencoder_vit_b,1,151,NaN,knife,bear,NaN,bear8-bottle1.png
autoencoder_vit_b,1,152,NaN,oven,bear,NaN,bear8-dog1.png
autoencoder_vit_b,1,153,NaN,knife,bear,NaN,bear8-elephant2.png
autoencoder_vit_b,1,154,NaN,knife,bear,NaN,bear8-knife3.png
autoencoder_vit_b,1,155,NaN,knife,bear,NaN,bear8-truck3.png
autoencoder_vit_b,1,156,NaN,knife,bear,NaN,bear9-boat2.png
autoencoder_vit_b,1,157,NaN,knife,bear,NaN,bear9-bottle2.png
autoencoder_vit_b,1,158,NaN,knife,bear,NaN,bear9-dog1.png
autoencoder_vit_b,1,159,NaN,knife,bear,NaN,bear9-keyboard3.png
autoencoder_vit_b,1,160,NaN,knife,bear,NaN,bear9-knife2.png
autoencoder_vit_b,1,161,NaN,airplane,bicycle,NaN,bicycle1-airplane2.png
autoencoder_vit_b,1,162,NaN,oven,bicycle,NaN,bicycle1-bear1.png
autoencoder_vit_b,1,163,NaN,airplane,bicycle,NaN,bicycle1-bicycle3.png
autoencoder_vit_b,1,164,NaN,knife,bicycle,NaN,bicycle1-bird1.png
autoencoder_vit_b,1,165,NaN,airplane,bicycle,NaN,bicycle1-boat3.png
autoencoder_vit_b,1,166,NaN,airplane,bicycle,NaN,bicycle1-bottle3.png
autoencoder_vit_b,1,167,NaN,oven,bicycle,NaN,bicycle1-chair1.png
autoencoder_vit_b,1,168,NaN,airplane,bicycle,NaN,bicycle1-clock3.png
autoencoder_vit_b,1,169,NaN,airplane,bicycle,NaN,bicycle1-dog3.png
autoencoder_vit_b,1,170,NaN,oven,bicycle,NaN,bicycle1-elephant2.png
autoencoder_vit_b,1,171,NaN,airplane,bicycle,NaN,bicycle1-knife3.png
autoencoder_vit_b,1,172,NaN,airplane,bicycle,NaN,bicycle1-oven1.png
autoencoder_vit_b,1,173,NaN,oven,bicycle,NaN,bicycle1-truck1.png
autoencoder_vit_b,1,174,NaN,airplane,bicycle,NaN,bicycle10-airplane2.png
autoencoder_vit_b,1,175,NaN,airplane,bicycle,NaN,bicycle10-boat3.png
autoencoder_vit_b,1,176,NaN,airplane,bicycle,NaN,bicycle10-clock2.png
autoencoder_vit_b,1,177,NaN,oven,bicycle,NaN,bicycle10-dog3.png
autoencoder_vit_b,1,178,NaN,oven,bicycle,NaN,bicycle10-elephant2.png
autoencoder_vit_b,1,179,NaN,airplane,bicycle,NaN,bicycle2-bicycle1.png
autoencoder_vit_b,1,180,NaN,airplane,bicycle,NaN,bicycle2-bird3.png
autoencoder_vit_b,1,181,NaN,airplane,bicycle,NaN,bicycle2-bottle1.png
autoencoder_vit_b,1,182,NaN,oven,bicycle,NaN,bicycle2-car2.png
autoencoder_vit_b,1,183,NaN,oven,bicycle,NaN,bicycle2-dog1.png
autoencoder_vit_b,1,184,NaN,knife,bicycle,NaN,bicycle2-keyboard2.png
autoencoder_vit_b,1,185,NaN,airplane,bicycle,NaN,bicycle2-knife2.png
autoencoder_vit_b,1,186,NaN,knife,bicycle,NaN,bicycle3-bird1.png
autoencoder_vit_b,1,187,NaN,oven,bicycle,NaN,bicycle3-elephant2.png
autoencoder_vit_b,1,188,NaN,knife,bicycle,NaN,bicycle3-keyboard1.png
autoencoder_vit_b,1,189,NaN,airplane,bicycle,NaN,bicycle3-oven3.png
autoencoder_vit_b,1,190,NaN,oven,bicycle,NaN,bicycle3-truck3.png
autoencoder_vit_b,1,191,NaN,airplane,bicycle,NaN,bicycle4-airplane1.png
autoencoder_vit_b,1,192,NaN,airplane,bicycle,NaN,bicycle4-bicycle3.png
autoencoder_vit_b,1,193,NaN,airplane,bicycle,NaN,bicycle4-boat1.png
autoencoder_vit_b,1,194,NaN,knife,bicycle,NaN,bicycle4-bottle1.png
autoencoder_vit_b,1,195,NaN,oven,bicycle,NaN,bicycle4-car2.png
autoencoder_vit_b,1,196,NaN,airplane,bicycle,NaN,bicycle4-cat1.png
autoencoder_vit_b,1,197,NaN,oven,bicycle,NaN,bicycle4-chair2.png
autoencoder_vit_b,1,198,NaN,airplane,bicycle,NaN,bicycle4-clock3.png
autoencoder_vit_b,1,199,NaN,knife,bicycle,NaN,bicycle4-keyboard3.png
autoencoder_vit_b,1,200,NaN,airplane,bicycle,NaN,bicycle4-knife3.png
autoencoder_vit_b,1,201,NaN,airplane,bicycle,NaN,bicycle4-oven3.png
autoencoder_vit_b,1,202,NaN,oven,bicycle,NaN,bicycle4-truck3.png
autoencoder_vit_b,1,203,NaN,oven,bicycle,NaN,bicycle5-bear1.png
autoencoder_vit_b,1,204,NaN,airplane,bicycle,NaN,bicycle5-bottle3.png
autoencoder_vit_b,1,205,NaN,airplane,bicycle,NaN,bicycle5-car3.png
autoencoder_vit_b,1,206,NaN,airplane,bicycle,NaN,bicycle5-cat1.png
autoencoder_vit_b,1,207,NaN,oven,bicycle,NaN,bicycle5-chair2.png
autoencoder_vit_b,1,208,NaN,oven,bicycle,NaN,bicycle5-dog2.png
autoencoder_vit_b,1,209,NaN,airplane,bicycle,NaN,bicycle5-elephant1.png
autoencoder_vit_b,1,210,NaN,knife,bicycle,NaN,bicycle5-keyboard3.png
autoencoder_vit_b,1,211,NaN,airplane,bicycle,NaN,bicycle5-oven3.png
autoencoder_vit_b,1,212,NaN,airplane,bicycle,NaN,bicycle6-airplane2.png
autoencoder_vit_b,1,213,NaN,airplane,bicycle,NaN,bicycle6-bicycle3.png
autoencoder_vit_b,1,214,NaN,airplane,bicycle,NaN,bicycle6-boat2.png
autoencoder_vit_b,1,215,NaN,oven,bicycle,NaN,bicycle6-car2.png
autoencoder_vit_b,1,216,NaN,airplane,bicycle,NaN,bicycle6-cat1.png
autoencoder_vit_b,1,217,NaN,oven,bicycle,NaN,bicycle6-dog2.png
autoencoder_vit_b,1,218,NaN,airplane,bicycle,NaN,bicycle7-bear2.png
autoencoder_vit_b,1,219,NaN,airplane,bicycle,NaN,bicycle7-bicycle2.png
autoencoder_vit_b,1,220,NaN,airplane,bicycle,NaN,bicycle7-cat1.png
autoencoder_vit_b,1,221,NaN,airplane,bicycle,NaN,bicycle7-clock3.png
autoencoder_vit_b,1,222,NaN,oven,bicycle,NaN,bicycle7-elephant2.png
autoencoder_vit_b,1,223,NaN,knife,bicycle,NaN,bicycle7-knife2.png
autoencoder_vit_b,1,224,NaN,airplane,bicycle,NaN,bicycle7-oven1.png
autoencoder_vit_b,1,225,NaN,oven,bicycle,NaN,bicycle7-truck3.png
autoencoder_vit_b,1,226,NaN,airplane,bicycle,NaN,bicycle8-bear2.png
autoencoder_vit_b,1,227,NaN,airplane,bicycle,NaN,bicycle8-bird2.png
autoencoder_vit_b,1,228,NaN,airplane,bicycle,NaN,bicycle8-boat1.png
autoencoder_vit_b,1,229,NaN,oven,bicycle,NaN,bicycle8-chair2.png
autoencoder_vit_b,1,230,NaN,airplane,bicycle,NaN,bicycle8-clock3.png
autoencoder_vit_b,1,231,NaN,oven,bicycle,NaN,bicycle8-truck1.png
autoencoder_vit_b,1,232,NaN,airplane,bicycle,NaN,bicycle9-airplane2.png
autoencoder_vit_b,1,233,NaN,oven,bicycle,NaN,bicycle9-bear1.png
autoencoder_vit_b,1,234,NaN,airplane,bicycle,NaN,bicycle9-bird3.png
autoencoder_vit_b,1,235,NaN,bottle,bicycle,NaN,bicycle9-bottle1.png
autoencoder_vit_b,1,236,NaN,airplane,bicycle,NaN,bicycle9-car1.png
autoencoder_vit_b,1,237,NaN,oven,bicycle,NaN,bicycle9-cat3.png
autoencoder_vit_b,1,238,NaN,oven,bicycle,NaN,bicycle9-chair1.png
autoencoder_vit_b,1,239,NaN,knife,bicycle,NaN,bicycle9-keyboard3.png
autoencoder_vit_b,1,240,NaN,airplane,bicycle,NaN,bicycle9-knife3.png
autoencoder_vit_b,1,241,NaN,airplane,bird,NaN,bird1-airplane2.png
autoencoder_vit_b,1,242,NaN,oven,bird,NaN,bird1-bear1.png
autoencoder_vit_b,1,243,NaN,airplane,bird,NaN,bird1-bicycle2.png
autoencoder_vit_b,1,244,NaN,airplane,bird,NaN,bird1-boat1.png
autoencoder_vit_b,1,245,NaN,oven,bird,NaN,bird1-chair2.png
autoencoder_vit_b,1,246,NaN,airplane,bird,NaN,bird1-clock3.png
autoencoder_vit_b,1,247,NaN,oven,bird,NaN,bird1-elephant2.png
autoencoder_vit_b,1,248,NaN,knife,bird,NaN,bird1-keyboard3.png
autoencoder_vit_b,1,249,NaN,airplane,bird,NaN,bird1-knife3.png
autoencoder_vit_b,1,250,NaN,airplane,bird,NaN,bird1-oven1.png
autoencoder_vit_b,1,251,NaN,airplane,bird,NaN,bird1-truck1.png
autoencoder_vit_b,1,252,NaN,airplane,bird,NaN,bird10-bear2.png
autoencoder_vit_b,1,253,NaN,airplane,bird,NaN,bird10-bicycle1.png
autoencoder_vit_b,1,254,NaN,airplane,bird,NaN,bird10-bird2.png
autoencoder_vit_b,1,255,NaN,airplane,bird,NaN,bird10-cat1.png
autoencoder_vit_b,1,256,NaN,oven,bird,NaN,bird10-chair1.png
autoencoder_vit_b,1,257,NaN,airplane,bird,NaN,bird10-clock1.png
autoencoder_vit_b,1,258,NaN,oven,bird,NaN,bird10-elephant2.png
autoencoder_vit_b,1,259,NaN,airplane,bird,NaN,bird2-airplane3.png
autoencoder_vit_b,1,260,NaN,airplane,bird,NaN,bird2-bird2.png
autoencoder_vit_b,1,261,NaN,airplane,bird,NaN,bird2-car3.png
autoencoder_vit_b,1,262,NaN,airplane,bird,NaN,bird2-clock3.png
autoencoder_vit_b,1,263,NaN,oven,bird,NaN,bird2-dog2.png
autoencoder_vit_b,1,264,NaN,oven,bird,NaN,bird2-knife1.png
autoencoder_vit_b,1,265,NaN,oven,bird,NaN,bird3-bear3.png
autoencoder_vit_b,1,266,NaN,airplane,bird,NaN,bird3-bird2.png
autoencoder_vit_b,1,267,NaN,airplane,bird,NaN,bird3-boat3.png
autoencoder_vit_b,1,268,NaN,airplane,bird,NaN,bird3-bottle2.png
autoencoder_vit_b,1,269,NaN,airplane,bird,NaN,bird3-cat1.png
autoencoder_vit_b,1,270,NaN,airplane,bird,NaN,bird3-dog1.png
autoencoder_vit_b,1,271,NaN,airplane,bird,NaN,bird3-knife3.png
autoencoder_vit_b,1,272,NaN,airplane,bird,NaN,bird3-oven1.png
autoencoder_vit_b,1,273,NaN,airplane,bird,NaN,bird3-truck3.png
autoencoder_vit_b,1,274,NaN,airplane,bird,NaN,bird4-airplane1.png
autoencoder_vit_b,1,275,NaN,airplane,bird,NaN,bird4-bicycle2.png
autoencoder_vit_b,1,276,NaN,oven,bird,NaN,bird4-cat3.png
autoencoder_vit_b,1,277,NaN,airplane,bird,NaN,bird4-clock1.png
autoencoder_vit_b,1,278,NaN,oven,bird,NaN,bird4-dog3.png
autoencoder_vit_b,1,279,NaN,airplane,bird,NaN,bird5-airplane3.png
autoencoder_vit_b,1,280,NaN,oven,bird,NaN,bird5-bear3.png
autoencoder_vit_b,1,281,NaN,airplane,bird,NaN,bird5-bicycle1.png
autoencoder_vit_b,1,282,NaN,knife,bird,NaN,bird5-bird1.png
autoencoder_vit_b,1,283,NaN,oven,bird,NaN,bird5-car2.png
autoencoder_vit_b,1,284,NaN,airplane,bird,NaN,bird5-cat2.png
autoencoder_vit_b,1,285,NaN,oven,bird,NaN,bird5-chair1.png
autoencoder_vit_b,1,286,NaN,oven,bird,NaN,bird5-dog2.png
autoencoder_vit_b,1,287,NaN,knife,bird,NaN,bird5-keyboard2.png
autoencoder_vit_b,1,288,NaN,airplane,bird,NaN,bird5-oven3.png
autoencoder_vit_b,1,289,NaN,oven,bird,NaN,bird5-truck2.png
autoencoder_vit_b,1,290,NaN,airplane,bird,NaN,bird6-airplane2.png
autoencoder_vit_b,1,291,NaN,airplane,bird,NaN,bird6-boat2.png
autoencoder_vit_b,1,292,NaN,airplane,bird,NaN,bird6-bottle3.png
autoencoder_vit_b,1,293,NaN,airplane,bird,NaN,bird6-car3.png
autoencoder_vit_b,1,294,NaN,oven,bird,NaN,bird6-elephant2.png
autoencoder_vit_b,1,295,NaN,airplane,bird,NaN,bird6-oven1.png
autoencoder_vit_b,1,296,NaN,oven,bird,NaN,bird6-truck2.png
autoencoder_vit_b,1,297,NaN,airplane,bird,NaN,bird7-bird2.png
autoencoder_vit_b,1,298,NaN,airplane,bird,NaN,bird7-boat1.png
autoencoder_vit_b,1,299,NaN,airplane,bird,NaN,bird7-bottle1.png
autoencoder_vit_b,1,300,NaN,airplane,bird,NaN,bird7-car2.png
autoencoder_vit_b,1,301,NaN,oven,bird,NaN,bird7-cat3.png
autoencoder_vit_b,1,302,NaN,knife,bird,NaN,bird7-keyboard3.png
autoencoder_vit_b,1,303,NaN,airplane,bird,NaN,bird7-knife2.png
autoencoder_vit_b,1,304,NaN,airplane,bird,NaN,bird7-oven3.png
autoencoder_vit_b,1,305,NaN,oven,bird,NaN,bird7-truck2.png
autoencoder_vit_b,1,306,NaN,airplane,bird,NaN,bird8-boat3.png
autoencoder_vit_b,1,307,NaN,airplane,bird,NaN,bird8-bottle1.png
autoencoder_vit_b,1,308,NaN,oven,bird,NaN,bird8-car2.png
autoencoder_vit_b,1,309,NaN,oven,bird,NaN,bird8-chair1.png
autoencoder_vit_b,1,310,NaN,airplane,bird,NaN,bird8-clock1.png
autoencoder_vit_b,1,311,NaN,airplane,bird,NaN,bird8-elephant1.png
autoencoder_vit_b,1,312,NaN,knife,bird,NaN,bird8-keyboard2.png
autoencoder_vit_b,1,313,NaN,airplane,bird,NaN,bird8-knife2.png
autoencoder_vit_b,1,314,NaN,oven,bird,NaN,bird9-bear3.png
autoencoder_vit_b,1,315,NaN,airplane,bird,NaN,bird9-bicycle3.png
autoencoder_vit_b,1,316,NaN,airplane,bird,NaN,bird9-bottle3.png
autoencoder_vit_b,1,317,NaN,oven,bird,NaN,bird9-chair1.png
autoencoder_vit_b,1,318,NaN,oven,bird,NaN,bird9-dog2.png
autoencoder_vit_b,1,319,NaN,oven,bird,NaN,bird9-elephant2.png
autoencoder_vit_b,1,320,NaN,knife,bird,NaN,bird9-keyboard1.png
autoencoder_vit_b,1,321,NaN,oven,boat,NaN,boat1-bear1.png
autoencoder_vit_b,1,322,NaN,airplane,boat,NaN,boat1-bicycle2.png
autoencoder_vit_b,1,323,NaN,airplane,boat,NaN,boat1-bird3.png
autoencoder_vit_b,1,324,NaN,oven,boat,NaN,boat1-car2.png
autoencoder_vit_b,1,325,NaN,airplane,boat,NaN,boat1-chair3.png
autoencoder_vit_b,1,326,NaN,airplane,boat,NaN,boat1-elephant3.png
autoencoder_vit_b,1,327,NaN,knife,boat,NaN,boat1-keyboard3.png
autoencoder_vit_b,1,328,NaN,airplane,boat,NaN,boat1-oven1.png
autoencoder_vit_b,1,329,NaN,oven,boat,NaN,boat1-truck3.png
autoencoder_vit_b,1,330,NaN,oven,boat,NaN,boat10-bear3.png
autoencoder_vit_b,1,331,NaN,airplane,boat,NaN,boat10-boat3.png
autoencoder_vit_b,1,332,NaN,airplane,boat,NaN,boat10-cat1.png
autoencoder_vit_b,1,333,NaN,airplane,boat,NaN,boat10-oven1.png
autoencoder_vit_b,1,334,NaN,airplane,boat,NaN,boat10-truck1.png
autoencoder_vit_b,1,335,NaN,airplane,boat,NaN,boat2-airplane1.png
autoencoder_vit_b,1,336,NaN,oven,boat,NaN,boat2-bear3.png
autoencoder_vit_b,1,337,NaN,knife,boat,NaN,boat2-bird1.png
autoencoder_vit_b,1,338,NaN,airplane,boat,NaN,boat2-bottle2.png
autoencoder_vit_b,1,339,NaN,knife,boat,NaN,boat2-keyboard1.png
autoencoder_vit_b,1,340,NaN,airplane,boat,NaN,boat2-oven3.png
autoencoder_vit_b,1,341,NaN,airplane,boat,NaN,boat3-airplane2.png
autoencoder_vit_b,1,342,NaN,airplane,boat,NaN,boat3-bicycle2.png
autoencoder_vit_b,1,343,NaN,airplane,boat,NaN,boat3-car3.png
autoencoder_vit_b,1,344,NaN,oven,boat,NaN,boat3-cat3.png
autoencoder_vit_b,1,345,NaN,airplane,boat,NaN,boat3-chair3.png
autoencoder_vit_b,1,346,NaN,airplane,boat,NaN,boat3-clock3.png
autoencoder_vit_b,1,347,NaN,oven,boat,NaN,boat3-dog3.png
autoencoder_vit_b,1,348,NaN,knife,boat,NaN,boat3-keyboard2.png
autoencoder_vit_b,1,349,NaN,airplane,boat,NaN,boat4-bicycle3.png
autoencoder_vit_b,1,350,NaN,knife,boat,NaN,boat4-bird1.png
autoencoder_vit_b,1,351,NaN,airplane,boat,NaN,boat4-boat3.png
autoencoder_vit_b,1,352,NaN,airplane,boat,NaN,boat4-bottle2.png
autoencoder_vit_b,1,353,NaN,airplane,boat,NaN,boat4-car3.png
autoencoder_vit_b,1,354,NaN,oven,boat,NaN,boat4-chair2.png
autoencoder_vit_b,1,355,NaN,oven,boat,NaN,boat4-dog2.png
autoencoder_vit_b,1,356,NaN,oven,boat,NaN,boat4-elephant2.png
autoencoder_vit_b,1,357,NaN,airplane,boat,NaN,boat4-knife2.png
autoencoder_vit_b,1,358,NaN,airplane,boat,NaN,boat5-airplane1.png
autoencoder_vit_b,1,359,NaN,airplane,boat,NaN,boat5-bicycle3.png
autoencoder_vit_b,1,360,NaN,airplane,boat,NaN,boat5-boat3.png
autoencoder_vit_b,1,361,NaN,airplane,boat,NaN,boat5-car3.png
autoencoder_vit_b,1,362,NaN,airplane,boat,NaN,boat5-clock3.png
autoencoder_vit_b,1,363,NaN,airplane,boat,NaN,boat5-knife2.png
autoencoder_vit_b,1,364,NaN,airplane,boat,NaN,boat6-airplane2.png
autoencoder_vit_b,1,365,NaN,oven,boat,NaN,boat6-bear1.png
autoencoder_vit_b,1,366,NaN,airplane,boat,NaN,boat6-bicycle2.png
autoencoder_vit_b,1,367,NaN,airplane,boat,NaN,boat6-bottle2.png
autoencoder_vit_b,1,368,NaN,airplane,boat,NaN,boat6-car1.png
autoencoder_vit_b,1,369,NaN,airplane,boat,NaN,boat6-cat1.png
autoencoder_vit_b,1,370,NaN,airplane,boat,NaN,boat6-clock2.png
autoencoder_vit_b,1,371,NaN,airplane,boat,NaN,boat6-dog1.png
autoencoder_vit_b,1,372,NaN,oven,boat,NaN,boat6-elephant2.png
autoencoder_vit_b,1,373,NaN,airplane,boat,NaN,boat6-knife2.png
autoencoder_vit_b,1,374,NaN,oven,boat,NaN,boat6-truck3.png
autoencoder_vit_b,1,375,NaN,airplane,boat,NaN,boat7-boat2.png
autoencoder_vit_b,1,376,NaN,airplane,boat,NaN,boat7-bottle1.png
autoencoder_vit_b,1,377,NaN,oven,boat,NaN,boat7-cat3.png
autoencoder_vit_b,1,378,NaN,oven,boat,NaN,boat7-chair1.png
autoencoder_vit_b,1,379,NaN,airplane,boat,NaN,boat7-clock3.png
autoencoder_vit_b,1,380,NaN,airplane,boat,NaN,boat7-elephant3.png
autoencoder_vit_b,1,381,NaN,knife,boat,NaN,boat7-keyboard3.png
autoencoder_vit_b,1,382,NaN,airplane,boat,NaN,boat7-oven3.png
autoencoder_vit_b,1,383,NaN,oven,boat,NaN,boat7-truck2.png
autoencoder_vit_b,1,384,NaN,airplane,boat,NaN,boat8-bird2.png
autoencoder_vit_b,1,385,NaN,airplane,boat,NaN,boat8-bottle1.png
autoencoder_vit_b,1,386,NaN,oven,boat,NaN,boat8-dog3.png
autoencoder_vit_b,1,387,NaN,airplane,boat,NaN,boat8-elephant1.png
autoencoder_vit_b,1,388,NaN,airplane,boat,NaN,boat8-knife1.png
autoencoder_vit_b,1,389,NaN,airplane,boat,NaN,boat8-oven1.png
autoencoder_vit_b,1,390,NaN,oven,boat,NaN,boat8-truck2.png
autoencoder_vit_b,1,391,NaN,airplane,boat,NaN,boat9-airplane2.png
autoencoder_vit_b,1,392,NaN,oven,boat,NaN,boat9-bear3.png
autoencoder_vit_b,1,393,NaN,knife,boat,NaN,boat9-bird1.png
autoencoder_vit_b,1,394,NaN,airplane,boat,NaN,boat9-boat3.png
autoencoder_vit_b,1,395,NaN,oven,boat,NaN,boat9-cat3.png
autoencoder_vit_b,1,396,NaN,oven,boat,NaN,boat9-chair2.png
autoencoder_vit_b,1,397,NaN,airplane,boat,NaN,boat9-clock1.png
autoencoder_vit_b,1,398,NaN,oven,boat,NaN,boat9-dog2.png
autoencoder_vit_b,1,399,NaN,knife,boat,NaN,boat9-keyboard2.png
autoencoder_vit_b,1,400,NaN,airplane,boat,NaN,boat9-knife2.png
autoencoder_vit_b,1,401,NaN,oven,bottle,NaN,bottle1-bear1.png
autoencoder_vit_b,1,402,NaN,airplane,bottle,NaN,bottle1-bird3.png
autoencoder_vit_b,1,403,NaN,airplane,bottle,NaN,bottle1-car1.png
autoencoder_vit_b,1,404,NaN,oven,bottle,NaN,bottle1-cat3.png
autoencoder_vit_b,1,405,NaN,oven,bottle,NaN,bottle1-chair2.png
autoencoder_vit_b,1,406,NaN,airplane,bottle,NaN,bottle1-clock1.png
autoencoder_vit_b,1,407,NaN,airplane,bottle,NaN,bottle1-dog2.png
autoencoder_vit_b,1,408,NaN,knife,bottle,NaN,bottle1-keyboard3.png
autoencoder_vit_b,1,409,NaN,airplane,bottle,NaN,bottle10-bear2.png
autoencoder_vit_b,1,410,NaN,airplane,bottle,NaN,bottle10-boat3.png
autoencoder_vit_b,1,411,NaN,airplane,bottle,NaN,bottle10-car1.png
autoencoder_vit_b,1,412,NaN,airplane,bottle,NaN,bottle10-clock2.png
autoencoder_vit_b,1,413,NaN,oven,bottle,NaN,bottle10-dog1.png
autoencoder_vit_b,1,414,NaN,oven,bottle,NaN,bottle10-truck3.png
autoencoder_vit_b,1,415,NaN,airplane,bottle,NaN,bottle2-bottle3.png
autoencoder_vit_b,1,416,NaN,oven,bottle,NaN,bottle2-car2.png
autoencoder_vit_b,1,417,NaN,airplane,bottle,NaN,bottle2-chair3.png
autoencoder_vit_b,1,418,NaN,airplane,bottle,NaN,bottle2-clock1.png
autoencoder_vit_b,1,419,NaN,airplane,bottle,NaN,bottle2-elephant1.png
autoencoder_vit_b,1,420,NaN,airplane,bottle,NaN,bottle2-knife3.png
autoencoder_vit_b,1,421,NaN,airplane,bottle,NaN,bottle3-airplane2.png
autoencoder_vit_b,1,422,NaN,airplane,bottle,NaN,bottle3-bear2.png
autoencoder_vit_b,1,423,NaN,airplane,bottle,NaN,bottle3-bicycle3.png
autoencoder_vit_b,1,424,NaN,knife,bottle,NaN,bottle3-bird1.png
autoencoder_vit_b,1,425,NaN,airplane,bottle,NaN,bottle3-boat3.png
autoencoder_vit_b,1,426,NaN,airplane,bottle,NaN,bottle3-bottle3.png
autoencoder_vit_b,1,427,NaN,oven,bottle,NaN,bottle3-cat3.png
autoencoder_vit_b,1,428,NaN,airplane,bottle,NaN,bottle3-chair3.png
autoencoder_vit_b,1,429,NaN,airplane,bottle,NaN,bottle3-knife3.png
autoencoder_vit_b,1,430,NaN,airplane,bottle,NaN,bottle4-airplane1.png
autoencoder_vit_b,1,431,NaN,airplane,bottle,NaN,bottle4-bicycle1.png
autoencoder_vit_b,1,432,NaN,airplane,bottle,NaN,bottle4-car3.png
autoencoder_vit_b,1,433,NaN,oven,bottle,NaN,bottle4-dog2.png
autoencoder_vit_b,1,434,NaN,airplane,bottle,NaN,bottle4-oven2.png
autoencoder_vit_b,1,435,NaN,airplane,bottle,NaN,bottle4-truck1.png
autoencoder_vit_b,1,436,NaN,airplane,bottle,NaN,bottle5-airplane1.png
autoencoder_vit_b,1,437,NaN,airplane,bottle,NaN,bottle5-bird3.png
autoencoder_vit_b,1,438,NaN,airplane,bottle,NaN,bottle5-boat1.png
autoencoder_vit_b,1,439,NaN,airplane,bottle,NaN,bottle5-cat1.png
autoencoder_vit_b,1,440,NaN,oven,bottle,NaN,bottle5-chair1.png
autoencoder_vit_b,1,441,NaN,airplane,bottle,NaN,bottle5-clock3.png
autoencoder_vit_b,1,442,NaN,airplane,bottle,NaN,bottle5-elephant1.png
autoencoder_vit_b,1,443,NaN,airplane,bottle,NaN,bottle5-keyboard2.png
autoencoder_vit_b,1,444,NaN,airplane,bottle,NaN,bottle5-knife1.png
autoencoder_vit_b,1,445,NaN,airplane,bottle,NaN,bottle5-oven2.png
autoencoder_vit_b,1,446,NaN,airplane,bottle,NaN,bottle5-truck1.png
autoencoder_vit_b,1,447,NaN,airplane,bottle,NaN,bottle6-airplane1.png
autoencoder_vit_b,1,448,NaN,airplane,bottle,NaN,bottle6-bear2.png
autoencoder_vit_b,1,449,NaN,airplane,bottle,NaN,bottle6-bicycle3.png
autoencoder_vit_b,1,450,NaN,knife,bottle,NaN,bottle6-bird1.png
autoencoder_vit_b,1,451,NaN,airplane,bottle,NaN,bottle6-boat3.png
autoencoder_vit_b,1,452,NaN,airplane,bottle,NaN,bottle6-bottle3.png
autoencoder_vit_b,1,453,NaN,oven,bottle,NaN,bottle6-chair2.png
autoencoder_vit_b,1,454,NaN,airplane,bottle,NaN,bottle6-dog3.png
autoencoder_vit_b,1,455,NaN,airplane,bottle,NaN,bottle6-knife3.png
autoencoder_vit_b,1,456,NaN,airplane,bottle,NaN,bottle6-oven3.png
autoencoder_vit_b,1,457,NaN,airplane,bottle,NaN,bottle7-airplane3.png
autoencoder_vit_b,1,458,NaN,oven,bottle,NaN,bottle7-bear1.png
autoencoder_vit_b,1,459,NaN,airplane,bottle,NaN,bottle7-boat3.png
autoencoder_vit_b,1,460,NaN,airplane,bottle,NaN,bottle7-cat2.png
autoencoder_vit_b,1,461,NaN,airplane,bottle,NaN,bottle7-clock1.png
autoencoder_vit_b,1,462,NaN,oven,bottle,NaN,bottle7-elephant2.png
autoencoder_vit_b,1,463,NaN,airplane,bottle,NaN,bottle7-keyboard2.png
autoencoder_vit_b,1,464,NaN,knife,bottle,NaN,bottle7-oven2.png
autoencoder_vit_b,1,465,NaN,oven,bottle,NaN,bottle7-truck2.png
autoencoder_vit_b,1,466,NaN,airplane,bottle,NaN,bottle8-bicycle1.png
autoencoder_vit_b,1,467,NaN,knife,bottle,NaN,bottle8-bird1.png
autoencoder_vit_b,1,468,NaN,airplane,bottle,NaN,bottle8-bottle3.png
autoencoder_vit_b,1,469,NaN,oven,bottle,NaN,bottle8-dog2.png
autoencoder_vit_b,1,470,NaN,airplane,bottle,NaN,bottle8-elephant3.png
autoencoder_vit_b,1,471,NaN,knife,bottle,NaN,bottle8-keyboard3.png
autoencoder_vit_b,1,472,NaN,airplane,bottle,NaN,bottle8-knife1.png
autoencoder_vit_b,1,473,NaN,airplane,bottle,NaN,bottle9-bicycle1.png
autoencoder_vit_b,1,474,NaN,airplane,bottle,NaN,bottle9-bottle1.png
autoencoder_vit_b,1,475,NaN,airplane,bottle,NaN,bottle9-car3.png
autoencoder_vit_b,1,476,NaN,airplane,bottle,NaN,bottle9-cat2.png
autoencoder_vit_b,1,477,NaN,oven,bottle,NaN,bottle9-elephant2.png
autoencoder_vit_b,1,478,NaN,knife,bottle,NaN,bottle9-keyboard1.png
autoencoder_vit_b,1,479,NaN,airplane,bottle,NaN,bottle9-oven2.png
autoencoder_vit_b,1,480,NaN,airplane,bottle,NaN,bottle9-truck1.png
autoencoder_vit_b,1,481,NaN,knife,car,NaN,car1-airplane1.png
autoencoder_vit_b,1,482,NaN,knife,car,NaN,car1-car2.png
autoencoder_vit_b,1,483,NaN,airplane,car,NaN,car1-chair3.png
autoencoder_vit_b,1,484,NaN,knife,car,NaN,car1-clock2.png
autoencoder_vit_b,1,485,NaN,knife,car,NaN,car1-dog2.png
autoencoder_vit_b,1,486,NaN,knife,car,NaN,car1-keyboard2.png
autoencoder_vit_b,1,487,NaN,knife,car,NaN,car1-oven3.png
autoencoder_vit_b,1,488,NaN,airplane,car,NaN,car10-bicycle2.png
autoencoder_vit_b,1,489,NaN,airplane,car,NaN,car10-bottle3.png
autoencoder_vit_b,1,490,NaN,airplane,car,NaN,car10-car1.png
autoencoder_vit_b,1,491,NaN,oven,car,NaN,car10-chair1.png
autoencoder_vit_b,1,492,NaN,oven,car,NaN,car10-dog1.png
autoencoder_vit_b,1,493,NaN,oven,car,NaN,car10-elephant2.png
autoencoder_vit_b,1,494,NaN,knife,car,NaN,car10-keyboard2.png
autoencoder_vit_b,1,495,NaN,airplane,car,NaN,car2-bird3.png
autoencoder_vit_b,1,496,NaN,airplane,car,NaN,car2-car3.png
autoencoder_vit_b,1,497,NaN,oven,car,NaN,car2-cat3.png
autoencoder_vit_b,1,498,NaN,knife,car,NaN,car2-chair1.png
autoencoder_vit_b,1,499,NaN,airplane,car,NaN,car2-knife3.png
autoencoder_vit_b,1,500,NaN,airplane,car,NaN,car3-airplane3.png
autoencoder_vit_b,1,501,NaN,airplane,car,NaN,car3-bird2.png
autoencoder_vit_b,1,502,NaN,airplane,car,NaN,car3-boat1.png
autoencoder_vit_b,1,503,NaN,airplane,car,NaN,car3-bottle3.png
autoencoder_vit_b,1,504,NaN,oven,car,NaN,car3-dog2.png
autoencoder_vit_b,1,505,NaN,airplane,car,NaN,car3-elephant3.png
autoencoder_vit_b,1,506,NaN,airplane,car,NaN,car3-oven3.png
autoencoder_vit_b,1,507,NaN,oven,car,NaN,car3-truck1.png
autoencoder_vit_b,1,508,NaN,knife,car,NaN,car4-bear3.png
autoencoder_vit_b,1,509,NaN,oven,car,NaN,car4-bicycle3.png
autoencoder_vit_b,1,510,NaN,knife,car,NaN,car4-bird1.png
autoencoder_vit_b,1,511,NaN,airplane,car,NaN,car4-boat1.png
autoencoder_vit_b,1,512,NaN,knife,car,NaN,car4-bottle1.png
autoencoder_vit_b,1,513,NaN,oven,car,NaN,car4-car2.png
autoencoder_vit_b,1,514,NaN,oven,car,NaN,car4-cat3.png
autoencoder_vit_b,1,515,NaN,airplane,car,NaN,car4-clock1.png
autoencoder_vit_b,1,516,NaN,airplane,car,NaN,car4-elephant3.png
autoencoder_vit_b,1,517,NaN,knife,car,NaN,car4-oven2.png
autoencoder_vit_b,1,518,NaN,airplane,car,NaN,car5-airplane3.png
autoencoder_vit_b,1,519,NaN,knife,car,NaN,car5-bear3.png
autoencoder_vit_b,1,520,NaN,knife,car,NaN,car5-bottle1.png
autoencoder_vit_b,1,521,NaN,knife,car,NaN,car5-cat1.png
autoencoder_vit_b,1,522,NaN,knife,car,NaN,car5-keyboard3.png
autoencoder_vit_b,1,523,NaN,airplane,car,NaN,car5-knife2.png
autoencoder_vit_b,1,524,NaN,knife,car,NaN,car5-oven2.png
autoencoder_vit_b,1,525,NaN,oven,car,NaN,car5-truck3.png
autoencoder_vit_b,1,526,NaN,oven,car,NaN,car6-bear1.png
autoencoder_vit_b,1,527,NaN,airplane,car,NaN,car6-bicycle3.png
autoencoder_vit_b,1,528,NaN,airplane,car,NaN,car6-boat1.png
autoencoder_vit_b,1,529,NaN,knife,car,NaN,car6-bottle1.png
autoencoder_vit_b,1,530,NaN,airplane,car,NaN,car6-chair3.png
autoencoder_vit_b,1,531,NaN,airplane,car,NaN,car6-elephant3.png
autoencoder_vit_b,1,532,NaN,airplane,car,NaN,car6-knife1.png
autoencoder_vit_b,1,533,NaN,oven,car,NaN,car6-truck3.png
autoencoder_vit_b,1,534,NaN,airplane,car,NaN,car7-airplane2.png
autoencoder_vit_b,1,535,NaN,oven,car,NaN,car7-bear1.png
autoencoder_vit_b,1,536,NaN,airplane,car,NaN,car7-bird3.png
autoencoder_vit_b,1,537,NaN,airplane,car,NaN,car7-boat3.png
autoencoder_vit_b,1,538,NaN,airplane,car,NaN,car7-car1.png
autoencoder_vit_b,1,539,NaN,airplane,car,NaN,car7-clock1.png
autoencoder_vit_b,1,540,NaN,airplane,car,NaN,car7-dog3.png
autoencoder_vit_b,1,541,NaN,airplane,car,NaN,car7-elephant3.png
autoencoder_vit_b,1,542,NaN,knife,car,NaN,car7-keyboard3.png
autoencoder_vit_b,1,543,NaN,knife,car,NaN,car7-oven2.png
autoencoder_vit_b,1,544,NaN,airplane,car,NaN,car8-airplane3.png
autoencoder_vit_b,1,545,NaN,oven,car,NaN,car8-bear1.png
autoencoder_vit_b,1,546,NaN,airplane,car,NaN,car8-bicycle2.png
autoencoder_vit_b,1,547,NaN,airplane,car,NaN,car8-boat3.png
autoencoder_vit_b,1,548,NaN,airplane,car,NaN,car8-cat1.png
autoencoder_vit_b,1,549,NaN,oven,car,NaN,car8-chair1.png
autoencoder_vit_b,1,550,NaN,airplane,car,NaN,car8-clock2.png
autoencoder_vit_b,1,551,NaN,oven,car,NaN,car8-dog1.png
autoencoder_vit_b,1,552,NaN,airplane,car,NaN,car8-knife2.png
autoencoder_vit_b,1,553,NaN,oven,car,NaN,car8-truck3.png
autoencoder_vit_b,1,554,NaN,airplane,car,NaN,car9-bicycle2.png
autoencoder_vit_b,1,555,NaN,knife,car,NaN,car9-bird1.png
autoencoder_vit_b,1,556,NaN,airplane,car,NaN,car9-cat1.png
autoencoder_vit_b,1,557,NaN,airplane,car,NaN,car9-clock2.png
autoencoder_vit_b,1,558,NaN,knife,car,NaN,car9-keyboard2.png
autoencoder_vit_b,1,559,NaN,airplane,car,NaN,car9-knife1.png
autoencoder_vit_b,1,560,NaN,oven,car,NaN,car9-truck3.png
autoencoder_vit_b,1,561,NaN,airplane,cat,NaN,cat1-airplane1.png
autoencoder_vit_b,1,562,NaN,knife,cat,NaN,cat1-bird1.png
autoencoder_vit_b,1,563,NaN,airplane,cat,NaN,cat1-boat1.png
autoencoder_vit_b,1,564,NaN,oven,cat,NaN,cat1-car2.png
autoencoder_vit_b,1,565,NaN,oven,cat,NaN,cat1-cat3.png
autoencoder_vit_b,1,566,NaN,oven,cat,NaN,cat1-chair2.png
autoencoder_vit_b,1,567,NaN,oven,cat,NaN,cat1-dog1.png
autoencoder_vit_b,1,568,NaN,knife,cat,NaN,cat1-keyboard3.png
autoencoder_vit_b,1,569,NaN,airplane,cat,NaN,cat1-oven1.png
autoencoder_vit_b,1,570,NaN,airplane,cat,NaN,cat10-airplane3.png
autoencoder_vit_b,1,571,NaN,oven,cat,NaN,cat10-bear1.png
autoencoder_vit_b,1,572,NaN,airplane,cat,NaN,cat10-bicycle1.png
autoencoder_vit_b,1,573,NaN,airplane,cat,NaN,cat10-bird2.png
autoencoder_vit_b,1,574,NaN,airplane,cat,NaN,cat10-bottle1.png
autoencoder_vit_b,1,575,NaN,airplane,cat,NaN,cat10-clock1.png
autoencoder_vit_b,1,576,NaN,airplane,cat,NaN,cat10-elephant3.png
autoencoder_vit_b,1,577,NaN,knife,cat,NaN,cat10-keyboard1.png
autoencoder_vit_b,1,578,NaN,knife,cat,NaN,cat10-oven2.png
autoencoder_vit_b,1,579,NaN,airplane,cat,NaN,cat2-boat2.png
autoencoder_vit_b,1,580,NaN,airplane,cat,NaN,cat2-bottle3.png
autoencoder_vit_b,1,581,NaN,airplane,cat,NaN,cat2-car3.png
autoencoder_vit_b,1,582,NaN,airplane,cat,NaN,cat2-cat1.png
autoencoder_vit_b,1,583,NaN,airplane,cat,NaN,cat2-elephant1.png
autoencoder_vit_b,1,584,NaN,airplane,cat,NaN,cat2-knife3.png
autoencoder_vit_b,1,585,NaN,oven,cat,NaN,cat2-truck3.png
autoencoder_vit_b,1,586,NaN,airplane,cat,NaN,cat3-bear2.png
autoencoder_vit_b,1,587,NaN,airplane,cat,NaN,cat3-bicycle1.png
autoencoder_vit_b,1,588,NaN,knife,cat,NaN,cat3-cat1.png
autoencoder_vit_b,1,589,NaN,oven,cat,NaN,cat3-elephant2.png
autoencoder_vit_b,1,590,NaN,knife,cat,NaN,cat3-oven2.png
autoencoder_vit_b,1,591,NaN,oven,cat,NaN,cat3-truck3.png
autoencoder_vit_b,1,592,NaN,airplane,cat,NaN,cat4-airplane1.png
autoencoder_vit_b,1,593,NaN,airplane,cat,NaN,cat4-bird2.png
autoencoder_vit_b,1,594,NaN,oven,cat,NaN,cat4-car2.png
autoencoder_vit_b,1,595,NaN,oven,cat,NaN,cat4-cat3.png
autoencoder_vit_b,1,596,NaN,oven,cat,NaN,cat4-chair2.png
autoencoder_vit_b,1,597,NaN,airplane,cat,NaN,cat4-clock2.png
autoencoder_vit_b,1,598,NaN,airplane,cat,NaN,cat4-dog3.png
autoencoder_vit_b,1,599,NaN,airplane,cat,NaN,cat4-keyboard2.png
autoencoder_vit_b,1,600,NaN,airplane,cat,NaN,cat4-knife1.png
autoencoder_vit_b,1,601,NaN,airplane,cat,NaN,cat4-oven1.png
autoencoder_vit_b,1,602,NaN,oven,cat,NaN,cat4-truck3.png
autoencoder_vit_b,1,603,NaN,airplane,cat,NaN,cat5-airplane2.png
autoencoder_vit_b,1,604,NaN,airplane,cat,NaN,cat5-bear2.png
autoencoder_vit_b,1,605,NaN,airplane,cat,NaN,cat5-bicycle3.png
autoencoder_vit_b,1,606,NaN,airplane,cat,NaN,cat5-boat1.png
autoencoder_vit_b,1,607,NaN,knife,cat,NaN,cat5-bottle1.png
autoencoder_vit_b,1,608,NaN,oven,cat,NaN,cat5-car2.png
autoencoder_vit_b,1,609,NaN,airplane,cat,NaN,cat5-chair3.png
autoencoder_vit_b,1,610,NaN,airplane,cat,NaN,cat5-dog3.png
autoencoder_vit_b,1,611,NaN,oven,cat,NaN,cat5-elephant2.png
autoencoder_vit_b,1,612,NaN,knife,cat,NaN,cat5-keyboard3.png
autoencoder_vit_b,1,613,NaN,airplane,cat,NaN,cat5-knife2.png
autoencoder_vit_b,1,614,NaN,oven,cat,NaN,cat6-bear1.png
autoencoder_vit_b,1,615,NaN,airplane,cat,NaN,cat6-chair3.png
autoencoder_vit_b,1,616,NaN,airplane,cat,NaN,cat6-clock3.png
autoencoder_vit_b,1,617,NaN,knife,cat,NaN,cat6-keyboard3.png
autoencoder_vit_b,1,618,NaN,airplane,cat,NaN,cat6-oven1.png
autoencoder_vit_b,1,619,NaN,airplane,cat,NaN,cat7-airplane2.png
autoencoder_vit_b,1,620,NaN,airplane,cat,NaN,cat7-boat3.png
autoencoder_vit_b,1,621,NaN,knife,cat,NaN,cat7-bottle1.png
autoencoder_vit_b,1,622,NaN,airplane,cat,NaN,cat7-clock3.png
autoencoder_vit_b,1,623,NaN,airplane,cat,NaN,cat7-dog3.png
autoencoder_vit_b,1,624,NaN,airplane,cat,NaN,cat7-elephant1.png
autoencoder_vit_b,1,625,NaN,knife,cat,NaN,cat7-knife2.png
autoencoder_vit_b,1,626,NaN,oven,cat,NaN,cat7-truck2.png
autoencoder_vit_b,1,627,NaN,oven,cat,NaN,cat8-bear1.png
autoencoder_vit_b,1,628,NaN,airplane,cat,NaN,cat8-bicycle3.png
autoencoder_vit_b,1,629,NaN,airplane,cat,NaN,cat8-bird2.png
autoencoder_vit_b,1,630,NaN,oven,cat,NaN,cat8-car2.png
autoencoder_vit_b,1,631,NaN,airplane,cat,NaN,cat9-bicycle1.png
autoencoder_vit_b,1,632,NaN,airplane,cat,NaN,cat9-bird3.png
autoencoder_vit_b,1,633,NaN,airplane,cat,NaN,cat9-boat2.png
autoencoder_vit_b,1,634,NaN,airplane,cat,NaN,cat9-bottle2.png
autoencoder_vit_b,1,635,NaN,oven,cat,NaN,cat9-cat3.png
autoencoder_vit_b,1,636,NaN,airplane,cat,NaN,cat9-chair2.png
autoencoder_vit_b,1,637,NaN,airplane,cat,NaN,cat9-clock2.png
autoencoder_vit_b,1,638,NaN,oven,cat,NaN,cat9-dog2.png
autoencoder_vit_b,1,639,NaN,airplane,cat,NaN,cat9-knife2.png
autoencoder_vit_b,1,640,NaN,airplane,cat,NaN,cat9-truck1.png
autoencoder_vit_b,1,641,NaN,airplane,chair,NaN,chair1-airplane2.png
autoencoder_vit_b,1,642,NaN,oven,chair,NaN,chair1-bear1.png
autoencoder_vit_b,1,643,NaN,oven,chair,NaN,chair1-cat3.png
autoencoder_vit_b,1,644,NaN,oven,chair,NaN,chair1-chair1.png
autoencoder_vit_b,1,645,NaN,airplane,chair,NaN,chair1-clock2.png
autoencoder_vit_b,1,646,NaN,oven,chair,NaN,chair1-dog1.png
autoencoder_vit_b,1,647,NaN,airplane,chair,NaN,chair1-elephant1.png
autoencoder_vit_b,1,648,NaN,airplane,chair,NaN,chair1-oven3.png
autoencoder_vit_b,1,649,NaN,oven,chair,NaN,chair1-truck3.png
autoencoder_vit_b,1,650,NaN,airplane,chair,NaN,chair10-airplane2.png
autoencoder_vit_b,1,651,NaN,airplane,chair,NaN,chair10-bicycle1.png
autoencoder_vit_b,1,652,NaN,airplane,chair,NaN,chair10-bird3.png
autoencoder_vit_b,1,653,NaN,airplane,chair,NaN,chair10-bottle3.png
autoencoder_vit_b,1,654,NaN,airplane,chair,NaN,chair10-car2.png
autoencoder_vit_b,1,655,NaN,airplane,chair,NaN,chair10-cat1.png
autoencoder_vit_b,1,656,NaN,airplane,chair,NaN,chair10-clock1.png
autoencoder_vit_b,1,657,NaN,oven,chair,NaN,chair10-dog1.png
autoencoder_vit_b,1,658,NaN,airplane,chair,NaN,chair10-oven1.png
autoencoder_vit_b,1,659,NaN,airplane,chair,NaN,chair2-bear2.png
autoencoder_vit_b,1,660,NaN,airplane,chair,NaN,chair2-boat1.png
autoencoder_vit_b,1,661,NaN,knife,chair,NaN,chair2-keyboard2.png
autoencoder_vit_b,1,662,NaN,oven,chair,NaN,chair2-knife1.png
autoencoder_vit_b,1,663,NaN,airplane,chair,NaN,chair3-airplane2.png
autoencoder_vit_b,1,664,NaN,airplane,chair,NaN,chair3-bicycle3.png
autoencoder_vit_b,1,665,NaN,airplane,chair,NaN,chair3-bottle3.png
autoencoder_vit_b,1,666,NaN,airplane,chair,NaN,chair3-car3.png
autoencoder_vit_b,1,667,NaN,oven,chair,NaN,chair3-dog2.png
autoencoder_vit_b,1,668,NaN,oven,chair,NaN,chair3-knife1.png
autoencoder_vit_b,1,669,NaN,airplane,chair,NaN,chair4-bear2.png
autoencoder_vit_b,1,670,NaN,airplane,chair,NaN,chair4-cat2.png
autoencoder_vit_b,1,671,NaN,airplane,chair,NaN,chair4-chair3.png
autoencoder_vit_b,1,672,NaN,knife,chair,NaN,chair4-keyboard2.png
autoencoder_vit_b,1,673,NaN,airplane,chair,NaN,chair4-oven2.png
autoencoder_vit_b,1,674,NaN,oven,chair,NaN,chair4-truck2.png
autoencoder_vit_b,1,675,NaN,airplane,chair,NaN,chair5-bicycle1.png
autoencoder_vit_b,1,676,NaN,knife,chair,NaN,chair5-bird1.png
autoencoder_vit_b,1,677,NaN,airplane,chair,NaN,chair5-boat3.png
autoencoder_vit_b,1,678,NaN,airplane,chair,NaN,chair5-bottle3.png
autoencoder_vit_b,1,679,NaN,airplane,chair,NaN,chair5-car1.png
autoencoder_vit_b,1,680,NaN,oven,chair,NaN,chair5-cat3.png
autoencoder_vit_b,1,681,NaN,airplane,chair,NaN,chair5-clock2.png
autoencoder_vit_b,1,682,NaN,knife,chair,NaN,chair5-keyboard2.png
autoencoder_vit_b,1,683,NaN,airplane,chair,NaN,chair5-knife3.png
autoencoder_vit_b,1,684,NaN,knife,chair,NaN,chair5-oven2.png
autoencoder_vit_b,1,685,NaN,oven,chair,NaN,chair5-truck3.png
autoencoder_vit_b,1,686,NaN,airplane,chair,NaN,chair6-bird2.png
autoencoder_vit_b,1,687,NaN,oven,chair,NaN,chair6-dog1.png
autoencoder_vit_b,1,688,NaN,knife,chair,NaN,chair6-elephant2.png
autoencoder_vit_b,1,689,NaN,oven,chair,NaN,chair6-truck2.png
autoencoder_vit_b,1,690,NaN,airplane,chair,NaN,chair7-airplane1.png
autoencoder_vit_b,1,691,NaN,knife,chair,NaN,chair7-bird1.png
autoencoder_vit_b,1,692,NaN,airplane,chair,NaN,chair7-boat3.png
autoencoder_vit_b,1,693,NaN,knife,chair,NaN,chair7-bottle1.png
autoencoder_vit_b,1,694,NaN,oven,chair,NaN,chair7-car2.png
autoencoder_vit_b,1,695,NaN,knife,chair,NaN,chair7-cat1.png
autoencoder_vit_b,1,696,NaN,knife,chair,NaN,chair7-chair1.png
autoencoder_vit_b,1,697,NaN,airplane,chair,NaN,chair7-clock3.png
autoencoder_vit_b,1,698,NaN,airplane,chair,NaN,chair7-elephant1.png
autoencoder_vit_b,1,699,NaN,knife,chair,NaN,chair7-knife2.png
autoencoder_vit_b,1,700,NaN,knife,chair,NaN,chair7-truck3.png
autoencoder_vit_b,1,701,NaN,airplane,chair,NaN,chair8-airplane1.png
autoencoder_vit_b,1,702,NaN,oven,chair,NaN,chair8-bear1.png
autoencoder_vit_b,1,703,NaN,airplane,chair,NaN,chair8-bicycle3.png
autoencoder_vit_b,1,704,NaN,airplane,chair,NaN,chair8-boat1.png
autoencoder_vit_b,1,705,NaN,airplane,chair,NaN,chair8-car1.png
autoencoder_vit_b,1,706,NaN,airplane,chair,NaN,chair8-chair3.png
autoencoder_vit_b,1,707,NaN,airplane,chair,NaN,chair8-clock3.png
autoencoder_vit_b,1,708,NaN,airplane,chair,NaN,chair8-elephant1.png
autoencoder_vit_b,1,709,NaN,knife,chair,NaN,chair8-keyboard3.png
autoencoder_vit_b,1,710,NaN,airplane,chair,NaN,chair8-knife2.png
autoencoder_vit_b,1,711,NaN,airplane,chair,NaN,chair8-oven1.png
autoencoder_vit_b,1,712,NaN,oven,chair,NaN,chair9-bear1.png
autoencoder_vit_b,1,713,NaN,airplane,chair,NaN,chair9-bicycle3.png
autoencoder_vit_b,1,714,NaN,airplane,chair,NaN,chair9-bird3.png
autoencoder_vit_b,1,715,NaN,airplane,chair,NaN,chair9-boat2.png
autoencoder_vit_b,1,716,NaN,airplane,chair,NaN,chair9-bottle3.png
autoencoder_vit_b,1,717,NaN,airplane,chair,NaN,chair9-chair3.png
autoencoder_vit_b,1,718,NaN,oven,chair,NaN,chair9-dog2.png
autoencoder_vit_b,1,719,NaN,airplane,chair,NaN,chair9-elephant1.png
autoencoder_vit_b,1,720,NaN,knife,chair,NaN,chair9-keyboard2.png
autoencoder_vit_b,1,721,NaN,oven,clock,NaN,clock1-bear1.png
autoencoder_vit_b,1,722,NaN,airplane,clock,NaN,clock1-boat3.png
autoencoder_vit_b,1,723,NaN,airplane,clock,NaN,clock1-car1.png
autoencoder_vit_b,1,724,NaN,airplane,clock,NaN,clock1-clock2.png
autoencoder_vit_b,1,725,NaN,oven,clock,NaN,clock1-dog2.png
autoencoder_vit_b,1,726,NaN,oven,clock,NaN,clock1-elephant2.png
autoencoder_vit_b,1,727,NaN,oven,clock,NaN,clock1-truck3.png
autoencoder_vit_b,1,728,NaN,airplane,clock,NaN,clock10-airplane1.png
autoencoder_vit_b,1,729,NaN,airplane,clock,NaN,clock10-bird3.png
autoencoder_vit_b,1,730,NaN,airplane,clock,NaN,clock10-boat2.png
autoencoder_vit_b,1,731,NaN,airplane,clock,NaN,clock10-bottle1.png
autoencoder_vit_b,1,732,NaN,airplane,clock,NaN,clock10-cat1.png
autoencoder_vit_b,1,733,NaN,airplane,clock,NaN,clock10-clock3.png
autoencoder_vit_b,1,734,NaN,airplane,clock,NaN,clock10-dog3.png
autoencoder_vit_b,1,735,NaN,airplane,clock,NaN,clock10-knife3.png
autoencoder_vit_b,1,736,NaN,knife,clock,NaN,clock10-oven2.png
autoencoder_vit_b,1,737,NaN,airplane,clock,NaN,clock10-truck2.png
autoencoder_vit_b,1,738,NaN,airplane,clock,NaN,clock2-bear2.png
autoencoder_vit_b,1,739,NaN,airplane,clock,NaN,clock2-bicycle1.png
autoencoder_vit_b,1,740,NaN,airplane,clock,NaN,clock2-bottle3.png
autoencoder_vit_b,1,741,NaN,airplane,clock,NaN,clock2-clock3.png
autoencoder_vit_b,1,742,NaN,oven,clock,NaN,clock2-dog1.png
autoencoder_vit_b,1,743,NaN,oven,clock,NaN,clock2-elephant2.png
autoencoder_vit_b,1,744,NaN,airplane,clock,NaN,clock2-knife1.png
autoencoder_vit_b,1,745,NaN,knife,clock,NaN,clock3-bear3.png
autoencoder_vit_b,1,746,NaN,airplane,clock,NaN,clock3-bicycle2.png
autoencoder_vit_b,1,747,NaN,knife,clock,NaN,clock3-bird1.png
autoencoder_vit_b,1,748,NaN,oven,clock,NaN,clock3-car2.png
autoencoder_vit_b,1,749,NaN,airplane,clock,NaN,clock3-cat1.png
autoencoder_vit_b,1,750,NaN,oven,clock,NaN,clock3-dog2.png
autoencoder_vit_b,1,751,NaN,airplane,clock,NaN,clock3-elephant3.png
autoencoder_vit_b,1,752,NaN,knife,clock,NaN,clock3-keyboard3.png
autoencoder_vit_b,1,753,NaN,airplane,clock,NaN,clock4-airplane1.png
autoencoder_vit_b,1,754,NaN,knife,clock,NaN,clock4-bird3.png
autoencoder_vit_b,1,755,NaN,knife,clock,NaN,clock4-boat3.png
autoencoder_vit_b,1,756,NaN,airplane,clock,NaN,clock4-bottle3.png
autoencoder_vit_b,1,757,NaN,knife,clock,NaN,clock4-car2.png
autoencoder_vit_b,1,758,NaN,knife,clock,NaN,clock4-chair1.png
autoencoder_vit_b,1,759,NaN,knife,clock,NaN,clock4-elephant2.png
autoencoder_vit_b,1,760,NaN,knife,clock,NaN,clock4-knife1.png
autoencoder_vit_b,1,761,NaN,knife,clock,NaN,clock4-oven1.png
autoencoder_vit_b,1,762,NaN,airplane,clock,NaN,clock5-airplane1.png
autoencoder_vit_b,1,763,NaN,airplane,clock,NaN,clock5-bicycle1.png
autoencoder_vit_b,1,764,NaN,airplane,clock,NaN,clock5-chair3.png
autoencoder_vit_b,1,765,NaN,airplane,clock,NaN,clock5-clock2.png
autoencoder_vit_b,1,766,NaN,oven,clock,NaN,clock5-elephant2.png
autoencoder_vit_b,1,767,NaN,knife,clock,NaN,clock5-keyboard1.png
autoencoder_vit_b,1,768,NaN,airplane,clock,NaN,clock5-oven1.png
autoencoder_vit_b,1,769,NaN,airplane,clock,NaN,clock6-bicycle1.png
autoencoder_vit_b,1,770,NaN,airplane,clock,NaN,clock6-bird3.png
autoencoder_vit_b,1,771,NaN,airplane,clock,NaN,clock6-bottle1.png
autoencoder_vit_b,1,772,NaN,oven,clock,NaN,clock6-car2.png
autoencoder_vit_b,1,773,NaN,airplane,clock,NaN,clock6-chair3.png
autoencoder_vit_b,1,774,NaN,airplane,clock,NaN,clock6-clock2.png
autoencoder_vit_b,1,775,NaN,airplane,clock,NaN,clock6-knife2.png
autoencoder_vit_b,1,776,NaN,airplane,clock,NaN,clock6-oven1.png
autoencoder_vit_b,1,777,NaN,oven,clock,NaN,clock6-truck3.png
autoencoder_vit_b,1,778,NaN,airplane,clock,NaN,clock7-bear2.png
autoencoder_vit_b,1,779,NaN,airplane,clock,NaN,clock7-bicycle1.png
autoencoder_vit_b,1,780,NaN,airplane,clock,NaN,clock7-boat3.png
autoencoder_vit_b,1,781,NaN,airplane,clock,NaN,clock7-bottle2.png
autoencoder_vit_b,1,782,NaN,oven,clock,NaN,clock7-car1.png
autoencoder_vit_b,1,783,NaN,airplane,clock,NaN,clock7-cat2.png
autoencoder_vit_b,1,784,NaN,oven,clock,NaN,clock7-dog2.png
autoencoder_vit_b,1,785,NaN,knife,clock,NaN,clock7-keyboard2.png
autoencoder_vit_b,1,786,NaN,knife,clock,NaN,clock7-truck3.png
autoencoder_vit_b,1,787,NaN,airplane,clock,NaN,clock8-airplane2.png
autoencoder_vit_b,1,788,NaN,airplane,clock,NaN,clock8-bear2.png
autoencoder_vit_b,1,789,NaN,airplane,clock,NaN,clock8-boat1.png
autoencoder_vit_b,1,790,NaN,knife,clock,NaN,clock8-cat1.png
autoencoder_vit_b,1,791,NaN,knife,clock,NaN,clock8-chair2.png
autoencoder_vit_b,1,792,NaN,knife,clock,NaN,clock8-keyboard1.png
autoencoder_vit_b,1,793,NaN,knife,clock,NaN,clock8-knife1.png
autoencoder_vit_b,1,794,NaN,airplane,clock,NaN,clock8-oven3.png
autoencoder_vit_b,1,795,NaN,knife,clock,NaN,clock8-truck2.png
autoencoder_vit_b,1,796,NaN,airplane,clock,NaN,clock9-airplane1.png
autoencoder_vit_b,1,797,NaN,airplane,clock,NaN,clock9-bird2.png
autoencoder_vit_b,1,798,NaN,airplane,clock,NaN,clock9-cat1.png
autoencoder_vit_b,1,799,NaN,airplane,clock,NaN,clock9-chair3.png
autoencoder_vit_b,1,800,NaN,knife,clock,NaN,clock9-keyboard2.png
autoencoder_vit_b,1,801,NaN,airplane,dog,NaN,dog1-airplane3.png
autoencoder_vit_b,1,802,NaN,oven,dog,NaN,dog1-bear1.png
autoencoder_vit_b,1,803,NaN,knife,dog,NaN,dog1-bird1.png
autoencoder_vit_b,1,804,NaN,airplane,dog,NaN,dog1-boat3.png
autoencoder_vit_b,1,805,NaN,oven,dog,NaN,dog1-car2.png
autoencoder_vit_b,1,806,NaN,oven,dog,NaN,dog1-cat3.png
autoencoder_vit_b,1,807,NaN,oven,dog,NaN,dog1-chair1.png
autoencoder_vit_b,1,808,NaN,oven,dog,NaN,dog1-dog2.png
autoencoder_vit_b,1,809,NaN,airplane,dog,NaN,dog1-knife3.png
autoencoder_vit_b,1,810,NaN,airplane,dog,NaN,dog10-airplane1.png
autoencoder_vit_b,1,811,NaN,airplane,dog,NaN,dog10-bicycle1.png
autoencoder_vit_b,1,812,NaN,airplane,dog,NaN,dog10-bottle1.png
autoencoder_vit_b,1,813,NaN,airplane,dog,NaN,dog10-car3.png
autoencoder_vit_b,1,814,NaN,airplane,dog,NaN,dog10-clock1.png
autoencoder_vit_b,1,815,NaN,oven,dog,NaN,dog10-dog1.png
autoencoder_vit_b,1,816,NaN,airplane,dog,NaN,dog10-elephant1.png
autoencoder_vit_b,1,817,NaN,knife,dog,NaN,dog10-keyboard2.png
autoencoder_vit_b,1,818,NaN,knife,dog,NaN,dog10-oven2.png
autoencoder_vit_b,1,819,NaN,oven,dog,NaN,dog10-truck2.png
autoencoder_vit_b,1,820,NaN,airplane,dog,NaN,dog2-airplane2.png
autoencoder_vit_b,1,821,NaN,airplane,dog,NaN,dog2-bicycle2.png
autoencoder_vit_b,1,822,NaN,airplane,dog,NaN,dog2-bottle2.png
autoencoder_vit_b,1,823,NaN,airplane,dog,NaN,dog2-cat1.png
autoencoder_vit_b,1,824,NaN,airplane,dog,NaN,dog2-dog3.png
autoencoder_vit_b,1,825,NaN,airplane,dog,NaN,dog2-knife3.png
autoencoder_vit_b,1,826,NaN,oven,dog,NaN,dog3-bear3.png
autoencoder_vit_b,1,827,NaN,airplane,dog,NaN,dog3-bird2.png
autoencoder_vit_b,1,828,NaN,airplane,dog,NaN,dog3-boat1.png
autoencoder_vit_b,1,829,NaN,airplane,dog,NaN,dog3-clock1.png
autoencoder_vit_b,1,830,NaN,oven,dog,NaN,dog3-dog1.png
autoencoder_vit_b,1,831,NaN,oven,dog,NaN,dog3-elephant2.png
autoencoder_vit_b,1,832,NaN,knife,dog,NaN,dog3-keyboard1.png
autoencoder_vit_b,1,833,NaN,airplane,dog,NaN,dog3-knife3.png
autoencoder_vit_b,1,834,NaN,oven,dog,NaN,dog3-truck2.png
autoencoder_vit_b,1,835,NaN,airplane,dog,NaN,dog4-airplane3.png
autoencoder_vit_b,1,836,NaN,airplane,dog,NaN,dog4-bicycle1.png
autoencoder_vit_b,1,837,NaN,knife,dog,NaN,dog4-bird1.png
autoencoder_vit_b,1,838,NaN,airplane,dog,NaN,dog4-bottle2.png
autoencoder_vit_b,1,839,NaN,oven,dog,NaN,dog4-cat3.png
autoencoder_vit_b,1,840,NaN,oven,dog,NaN,dog4-chair1.png
autoencoder_vit_b,1,841,NaN,airplane,dog,NaN,dog4-clock1.png
autoencoder_vit_b,1,842,NaN,oven,dog,NaN,dog4-elephant2.png
autoencoder_vit_b,1,843,NaN,knife,dog,NaN,dog4-keyboard2.png
autoencoder_vit_b,1,844,NaN,airplane,dog,NaN,dog4-oven1.png
autoencoder_vit_b,1,845,NaN,oven,dog,NaN,dog4-truck2.png
autoencoder_vit_b,1,846,NaN,oven,dog,NaN,dog5-bear3.png
autoencoder_vit_b,1,847,NaN,airplane,dog,NaN,dog5-boat3.png
autoencoder_vit_b,1,848,NaN,airplane,dog,NaN,dog5-car3.png
autoencoder_vit_b,1,849,NaN,airplane,dog,NaN,dog5-elephant1.png
autoencoder_vit_b,1,850,NaN,oven,dog,NaN,dog5-knife2.png
autoencoder_vit_b,1,851,NaN,airplane,dog,NaN,dog5-oven1.png
autoencoder_vit_b,1,852,NaN,airplane,dog,NaN,dog5-truck2.png
autoencoder_vit_b,1,853,NaN,airplane,dog,NaN,dog6-bicycle1.png
autoencoder_vit_b,1,854,NaN,knife,dog,NaN,dog6-bird1.png
autoencoder_vit_b,1,855,NaN,airplane,dog,NaN,dog6-cat1.png
autoencoder_vit_b,1,856,NaN,airplane,dog,NaN,dog6-clock1.png
autoencoder_vit_b,1,857,NaN,oven,dog,NaN,dog6-elephant2.png
autoencoder_vit_b,1,858,NaN,oven,dog,NaN,dog6-truck2.png
autoencoder_vit_b,1,859,NaN,airplane,dog,NaN,dog7-bird3.png
autoencoder_vit_b,1,860,NaN,oven,dog,NaN,dog7-car2.png
autoencoder_vit_b,1,861,NaN,oven,dog,NaN,dog7-chair2.png
autoencoder_vit_b,1,862,NaN,knife,dog,NaN,dog7-keyboard3.png
autoencoder_vit_b,1,863,NaN,airplane,dog,NaN,dog7-knife3.png
autoencoder_vit_b,1,864,NaN,knife,dog,NaN,dog7-oven2.png
autoencoder_vit_b,1,865,NaN,oven,dog,NaN,dog8-bear3.png
autoencoder_vit_b,1,866,NaN,airplane,dog,NaN,dog8-boat3.png
autoencoder_vit_b,1,867,NaN,airplane,dog,NaN,dog8-bottle2.png
autoencoder_vit_b,1,868,NaN,airplane,dog,NaN,dog8-chair3.png
autoencoder_vit_b,1,869,NaN,airplane,dog,NaN,dog8-clock2.png
autoencoder_vit_b,1,870,NaN,airplane,dog,NaN,dog8-dog3.png
autoencoder_vit_b,1,871,NaN,knife,dog,NaN,dog8-keyboard3.png
autoencoder_vit_b,1,872,NaN,airplane,dog,NaN,dog8-oven3.png
autoencoder_vit_b,1,873,NaN,airplane,dog,NaN,dog9-airplane3.png
autoencoder_vit_b,1,874,NaN,oven,dog,NaN,dog9-bear3.png
autoencoder_vit_b,1,875,NaN,airplane,dog,NaN,dog9-bicycle3.png
autoencoder_vit_b,1,876,NaN,airplane,dog,NaN,dog9-boat1.png
autoencoder_vit_b,1,877,NaN,airplane,dog,NaN,dog9-bottle1.png
autoencoder_vit_b,1,878,NaN,airplane,dog,NaN,dog9-car1.png
autoencoder_vit_b,1,879,NaN,airplane,dog,NaN,dog9-cat1.png
autoencoder_vit_b,1,880,NaN,airplane,dog,NaN,dog9-chair2.png
autoencoder_vit_b,1,881,NaN,airplane,elephant,NaN,elephant1-airplane2.png
autoencoder_vit_b,1,882,NaN,airplane,elephant,NaN,elephant1-bear2.png
autoencoder_vit_b,1,883,NaN,airplane,elephant,NaN,elephant1-boat2.png
autoencoder_vit_b,1,884,NaN,knife,elephant,NaN,elephant1-bottle1.png
autoencoder_vit_b,1,885,NaN,airplane,elephant,NaN,elephant1-car3.png
autoencoder_vit_b,1,886,NaN,oven,elephant,NaN,elephant1-chair1.png
autoencoder_vit_b,1,887,NaN,oven,elephant,NaN,elephant1-dog2.png
autoencoder_vit_b,1,888,NaN,knife,elephant,NaN,elephant1-keyboard3.png
autoencoder_vit_b,1,889,NaN,knife,elephant,NaN,elephant1-oven2.png
autoencoder_vit_b,1,890,NaN,knife,elephant,NaN,elephant10-bear1.png
autoencoder_vit_b,1,891,NaN,airplane,elephant,NaN,elephant10-elephant1.png
autoencoder_vit_b,1,892,NaN,knife,elephant,NaN,elephant10-keyboard1.png
autoencoder_vit_b,1,893,NaN,knife,elephant,NaN,elephant10-knife3.png
autoencoder_vit_b,1,894,NaN,airplane,elephant,NaN,elephant2-airplane3.png
autoencoder_vit_b,1,895,NaN,oven,elephant,NaN,elephant2-bear3.png
autoencoder_vit_b,1,896,NaN,knife,elephant,NaN,elephant2-bird1.png
autoencoder_vit_b,1,897,NaN,airplane,elephant,NaN,elephant2-boat1.png
autoencoder_vit_b,1,898,NaN,airplane,elephant,NaN,elephant2-bottle3.png
autoencoder_vit_b,1,899,NaN,airplane,elephant,NaN,elephant2-cat1.png
autoencoder_vit_b,1,900,NaN,airplane,elephant,NaN,elephant2-clock1.png
autoencoder_vit_b,1,901,NaN,airplane,elephant,NaN,elephant2-elephant3.png
autoencoder_vit_b,1,902,NaN,knife,elephant,NaN,elephant2-keyboard3.png
autoencoder_vit_b,1,903,NaN,oven,elephant,NaN,elephant2-truck2.png
autoencoder_vit_b,1,904,NaN,airplane,elephant,NaN,elephant3-cat2.png
autoencoder_vit_b,1,905,NaN,oven,elephant,NaN,elephant3-chair1.png
autoencoder_vit_b,1,906,NaN,knife,elephant,NaN,elephant3-keyboard2.png
autoencoder_vit_b,1,907,NaN,knife,elephant,NaN,elephant3-knife1.png
autoencoder_vit_b,1,908,NaN,airplane,elephant,NaN,elephant3-oven1.png
autoencoder_vit_b,1,909,NaN,oven,elephant,NaN,elephant3-truck1.png
autoencoder_vit_b,1,910,NaN,airplane,elephant,NaN,elephant4-bicycle2.png
autoencoder_vit_b,1,911,NaN,knife,elephant,NaN,elephant4-bird1.png
autoencoder_vit_b,1,912,NaN,airplane,elephant,NaN,elephant4-boat3.png
autoencoder_vit_b,1,913,NaN,car,elephant,NaN,elephant4-car3.png
autoencoder_vit_b,1,914,NaN,airplane,elephant,NaN,elephant4-chair3.png
autoencoder_vit_b,1,915,NaN,knife,elephant,NaN,elephant4-clock3.png
autoencoder_vit_b,1,916,NaN,knife,elephant,NaN,elephant4-oven1.png
autoencoder_vit_b,1,917,NaN,airplane,elephant,NaN,elephant5-bear2.png
autoencoder_vit_b,1,918,NaN,oven,elephant,NaN,elephant5-bicycle3.png
autoencoder_vit_b,1,919,NaN,airplane,elephant,NaN,elephant5-bottle2.png
autoencoder_vit_b,1,920,NaN,oven,elephant,NaN,elephant5-car1.png
autoencoder_vit_b,1,921,NaN,airplane,elephant,NaN,elephant5-chair3.png
autoencoder_vit_b,1,922,NaN,airplane,elephant,NaN,elephant5-elephant1.png
autoencoder_vit_b,1,923,NaN,oven,elephant,NaN,elephant5-truck1.png
autoencoder_vit_b,1,924,NaN,airplane,elephant,NaN,elephant6-bicycle1.png
autoencoder_vit_b,1,925,NaN,knife,elephant,NaN,elephant6-bird1.png
autoencoder_vit_b,1,926,NaN,knife,elephant,NaN,elephant6-bottle2.png
autoencoder_vit_b,1,927,NaN,airplane,elephant,NaN,elephant6-car3.png
autoencoder_vit_b,1,928,NaN,airplane,elephant,NaN,elephant6-cat2.png
autoencoder_vit_b,1,929,NaN,oven,elephant,NaN,elephant6-dog2.png
autoencoder_vit_b,1,930,NaN,knife,elephant,NaN,elephant6-knife2.png
autoencoder_vit_b,1,931,NaN,airplane,elephant,NaN,elephant6-oven1.png
autoencoder_vit_b,1,932,NaN,oven,elephant,NaN,elephant6-truck3.png
autoencoder_vit_b,1,933,NaN,airplane,elephant,NaN,elephant7-airplane3.png
autoencoder_vit_b,1,934,NaN,oven,elephant,NaN,elephant7-bear3.png
autoencoder_vit_b,1,935,NaN,knife,elephant,NaN,elephant7-bird1.png
autoencoder_vit_b,1,936,NaN,airplane,elephant,NaN,elephant7-bottle3.png
autoencoder_vit_b,1,937,NaN,airplane,elephant,NaN,elephant7-car3.png
autoencoder_vit_b,1,938,NaN,airplane,elephant,NaN,elephant7-cat1.png
autoencoder_vit_b,1,939,NaN,airplane,elephant,NaN,elephant7-clock2.png
autoencoder_vit_b,1,940,NaN,oven,elephant,NaN,elephant7-dog1.png
autoencoder_vit_b,1,941,NaN,knife,elephant,NaN,elephant7-keyboard3.png
autoencoder_vit_b,1,942,NaN,airplane,elephant,NaN,elephant7-knife2.png
autoencoder_vit_b,1,943,NaN,airplane,elephant,NaN,elephant8-airplane3.png
autoencoder_vit_b,1,944,NaN,car,elephant,NaN,elephant8-bicycle3.png
autoencoder_vit_b,1,945,NaN,airplane,elephant,NaN,elephant8-bird2.png
autoencoder_vit_b,1,946,NaN,airplane,elephant,NaN,elephant8-boat2.png
autoencoder_vit_b,1,947,NaN,knife,elephant,NaN,elephant8-cat1.png
autoencoder_vit_b,1,948,NaN,knife,elephant,NaN,elephant8-clock2.png
autoencoder_vit_b,1,949,NaN,oven,elephant,NaN,elephant8-dog1.png
autoencoder_vit_b,1,950,NaN,airplane,elephant,NaN,elephant8-elephant1.png
autoencoder_vit_b,1,951,NaN,knife,elephant,NaN,elephant8-knife2.png
autoencoder_vit_b,1,952,NaN,airplane,elephant,NaN,elephant8-oven3.png
autoencoder_vit_b,1,953,NaN,oven,elephant,NaN,elephant8-truck3.png
autoencoder_vit_b,1,954,NaN,airplane,elephant,NaN,elephant9-airplane2.png
autoencoder_vit_b,1,955,NaN,airplane,elephant,NaN,elephant9-bicycle2.png
autoencoder_vit_b,1,956,NaN,airplane,elephant,NaN,elephant9-boat3.png
autoencoder_vit_b,1,957,NaN,knife,elephant,NaN,elephant9-chair2.png
autoencoder_vit_b,1,958,NaN,airplane,elephant,NaN,elephant9-clock3.png
autoencoder_vit_b,1,959,NaN,oven,elephant,NaN,elephant9-dog3.png
autoencoder_vit_b,1,960,NaN,airplane,elephant,NaN,elephant9-elephant3.png
autoencoder_vit_b,1,961,NaN,airplane,keyboard,NaN,keyboard1-airplane2.png
autoencoder_vit_b,1,962,NaN,airplane,keyboard,NaN,keyboard1-bear2.png
autoencoder_vit_b,1,963,NaN,airplane,keyboard,NaN,keyboard1-bird2.png
autoencoder_vit_b,1,964,NaN,airplane,keyboard,NaN,keyboard1-car3.png
autoencoder_vit_b,1,965,NaN,oven,keyboard,NaN,keyboard1-chair2.png
autoencoder_vit_b,1,966,NaN,airplane,keyboard,NaN,keyboard1-clock1.png
autoencoder_vit_b,1,967,NaN,airplane,keyboard,NaN,keyboard1-dog3.png
autoencoder_vit_b,1,968,NaN,airplane,keyboard,NaN,keyboard1-elephant3.png
autoencoder_vit_b,1,969,NaN,airplane,keyboard,NaN,keyboard10-airplane3.png
autoencoder_vit_b,1,970,NaN,airplane,keyboard,NaN,keyboard10-boat2.png
autoencoder_vit_b,1,971,NaN,airplane,keyboard,NaN,keyboard10-car1.png
autoencoder_vit_b,1,972,NaN,knife,keyboard,NaN,keyboard10-keyboard1.png
autoencoder_vit_b,1,973,NaN,airplane,keyboard,NaN,keyboard10-oven3.png
autoencoder_vit_b,1,974,NaN,oven,keyboard,NaN,keyboard10-truck1.png
autoencoder_vit_b,1,975,NaN,airplane,keyboard,NaN,keyboard2-bicycle3.png
autoencoder_vit_b,1,976,NaN,airplane,keyboard,NaN,keyboard2-bottle1.png
autoencoder_vit_b,1,977,NaN,airplane,keyboard,NaN,keyboard2-clock1.png
autoencoder_vit_b,1,978,NaN,airplane,keyboard,NaN,keyboard2-elephant1.png
autoencoder_vit_b,1,979,NaN,airplane,keyboard,NaN,keyboard2-knife1.png
autoencoder_vit_b,1,980,NaN,airplane,keyboard,NaN,keyboard3-bicycle2.png
autoencoder_vit_b,1,981,NaN,airplane,keyboard,NaN,keyboard3-bird3.png
autoencoder_vit_b,1,982,NaN,airplane,keyboard,NaN,keyboard3-boat1.png
autoencoder_vit_b,1,983,NaN,airplane,keyboard,NaN,keyboard3-car2.png
autoencoder_vit_b,1,984,NaN,airplane,keyboard,NaN,keyboard3-cat1.png
autoencoder_vit_b,1,985,NaN,airplane,keyboard,NaN,keyboard3-clock3.png
autoencoder_vit_b,1,986,NaN,oven,keyboard,NaN,keyboard3-elephant2.png
autoencoder_vit_b,1,987,NaN,knife,keyboard,NaN,keyboard4-bird1.png
autoencoder_vit_b,1,988,NaN,airplane,keyboard,NaN,keyboard4-bottle2.png
autoencoder_vit_b,1,989,NaN,airplane,keyboard,NaN,keyboard4-cat2.png
autoencoder_vit_b,1,990,NaN,oven,keyboard,NaN,keyboard4-clock2.png
autoencoder_vit_b,1,991,NaN,knife,keyboard,NaN,keyboard4-keyboard2.png
autoencoder_vit_b,1,992,NaN,knife,keyboard,NaN,keyboard4-knife2.png
autoencoder_vit_b,1,993,NaN,knife,keyboard,NaN,keyboard4-oven2.png
autoencoder_vit_b,1,994,NaN,knife,keyboard,NaN,keyboard4-truck3.png
autoencoder_vit_b,1,995,NaN,airplane,keyboard,NaN,keyboard5-airplane3.png
autoencoder_vit_b,1,996,NaN,knife,keyboard,NaN,keyboard5-bear3.png
autoencoder_vit_b,1,997,NaN,airplane,keyboard,NaN,keyboard5-bicycle1.png
autoencoder_vit_b,1,998,NaN,knife,keyboard,NaN,keyboard5-bird3.png
autoencoder_vit_b,1,999,NaN,knife,keyboard,NaN,keyboard5-bottle1.png
autoencoder_vit_b,1,1000,NaN,knife,keyboard,NaN,keyboard5-cat1.png
autoencoder_vit_b,1,1001,NaN,oven,keyboard,NaN,keyboard5-dog3.png
autoencoder_vit_b,1,1002,NaN,knife,keyboard,NaN,keyboard5-keyboard1.png
autoencoder_vit_b,1,1003,NaN,knife,keyboard,NaN,keyboard5-knife2.png
autoencoder_vit_b,1,1004,NaN,knife,keyboard,NaN,keyboard5-oven2.png
autoencoder_vit_b,1,1005,NaN,airplane,keyboard,NaN,keyboard6-bear2.png
autoencoder_vit_b,1,1006,NaN,airplane,keyboard,NaN,keyboard6-bicycle1.png
autoencoder_vit_b,1,1007,NaN,airplane,keyboard,NaN,keyboard6-boat2.png
autoencoder_vit_b,1,1008,NaN,airplane,keyboard,NaN,keyboard6-bottle2.png
autoencoder_vit_b,1,1009,NaN,oven,keyboard,NaN,keyboard6-car2.png
autoencoder_vit_b,1,1010,NaN,oven,keyboard,NaN,keyboard6-chair1.png
autoencoder_vit_b,1,1011,NaN,oven,keyboard,NaN,keyboard6-dog2.png
autoencoder_vit_b,1,1012,NaN,airplane,keyboard,NaN,keyboard6-elephant1.png
autoencoder_vit_b,1,1013,NaN,airplane,keyboard,NaN,keyboard6-knife2.png
autoencoder_vit_b,1,1014,NaN,knife,keyboard,NaN,keyboard7-bear2.png
autoencoder_vit_b,1,1015,NaN,knife,keyboard,NaN,keyboard7-boat2.png
autoencoder_vit_b,1,1016,NaN,knife,keyboard,NaN,keyboard7-bottle1.png
autoencoder_vit_b,1,1017,NaN,knife,keyboard,NaN,keyboard7-car3.png
autoencoder_vit_b,1,1018,NaN,airplane,keyboard,NaN,keyboard7-chair3.png
autoencoder_vit_b,1,1019,NaN,knife,keyboard,NaN,keyboard7-clock3.png
autoencoder_vit_b,1,1020,NaN,knife,keyboard,NaN,keyboard7-dog1.png
autoencoder_vit_b,1,1021,NaN,knife,keyboard,NaN,keyboard7-knife1.png
autoencoder_vit_b,1,1022,NaN,knife,keyboard,NaN,keyboard7-oven2.png
autoencoder_vit_b,1,1023,NaN,knife,keyboard,NaN,keyboard7-truck2.png
autoencoder_vit_b,1,1024,NaN,airplane,keyboard,NaN,keyboard8-airplane2.png
autoencoder_vit_b,1,1025,NaN,oven,keyboard,NaN,keyboard8-cat3.png
autoencoder_vit_b,1,1026,NaN,knife,keyboard,NaN,keyboard8-chair2.png
autoencoder_vit_b,1,1027,NaN,oven,keyboard,NaN,keyboard8-dog3.png
autoencoder_vit_b,1,1028,NaN,knife,keyboard,NaN,keyboard8-keyboard2.png
autoencoder_vit_b,1,1029,NaN,airplane,keyboard,NaN,keyboard8-oven1.png
autoencoder_vit_b,1,1030,NaN,oven,keyboard,NaN,keyboard8-truck3.png
autoencoder_vit_b,1,1031,NaN,airplane,keyboard,NaN,keyboard9-airplane3.png
autoencoder_vit_b,1,1032,NaN,airplane,keyboard,NaN,keyboard9-bear2.png
autoencoder_vit_b,1,1033,NaN,airplane,keyboard,NaN,keyboard9-bicycle2.png
autoencoder_vit_b,1,1034,NaN,knife,keyboard,NaN,keyboard9-bird1.png
autoencoder_vit_b,1,1035,NaN,airplane,keyboard,NaN,keyboard9-boat2.png
autoencoder_vit_b,1,1036,NaN,knife,keyboard,NaN,keyboard9-cat1.png
autoencoder_vit_b,1,1037,NaN,knife,keyboard,NaN,keyboard9-chair2.png
autoencoder_vit_b,1,1038,NaN,knife,keyboard,NaN,keyboard9-elephant2.png
autoencoder_vit_b,1,1039,NaN,knife,keyboard,NaN,keyboard9-keyboard2.png
autoencoder_vit_b,1,1040,NaN,knife,keyboard,NaN,keyboard9-truck3.png
autoencoder_vit_b,1,1041,NaN,airplane,knife,NaN,knife1-airplane1.png
autoencoder_vit_b,1,1042,NaN,airplane,knife,NaN,knife1-bird2.png
autoencoder_vit_b,1,1043,NaN,airplane,knife,NaN,knife1-car3.png
autoencoder_vit_b,1,1044,NaN,oven,knife,NaN,knife1-chair1.png
autoencoder_vit_b,1,1045,NaN,airplane,knife,NaN,knife1-clock2.png
autoencoder_vit_b,1,1046,NaN,airplane,knife,NaN,knife1-dog1.png
autoencoder_vit_b,1,1047,NaN,airplane,knife,NaN,knife1-elephant1.png
autoencoder_vit_b,1,1048,NaN,knife,knife,NaN,knife1-keyboard3.png
autoencoder_vit_b,1,1049,NaN,airplane,knife,NaN,knife1-oven1.png
autoencoder_vit_b,1,1050,NaN,oven,knife,NaN,knife1-truck2.png
autoencoder_vit_b,1,1051,NaN,oven,knife,NaN,knife10-bear3.png
autoencoder_vit_b,1,1052,NaN,oven,knife,NaN,knife10-chair1.png
autoencoder_vit_b,1,1053,NaN,oven,knife,NaN,knife10-dog1.png
autoencoder_vit_b,1,1054,NaN,airplane,knife,NaN,knife10-elephant3.png
autoencoder_vit_b,1,1055,NaN,knife,knife,NaN,knife10-keyboard3.png
autoencoder_vit_b,1,1056,NaN,airplane,knife,NaN,knife10-knife1.png
autoencoder_vit_b,1,1057,NaN,airplane,knife,NaN,knife10-oven3.png
autoencoder_vit_b,1,1058,NaN,airplane,knife,NaN,knife2-bear2.png
autoencoder_vit_b,1,1059,NaN,airplane,knife,NaN,knife2-bicycle3.png
autoencoder_vit_b,1,1060,NaN,knife,knife,NaN,knife2-bird1.png
autoencoder_vit_b,1,1061,NaN,airplane,knife,NaN,knife2-bottle2.png
autoencoder_vit_b,1,1062,NaN,airplane,knife,NaN,knife2-car3.png
autoencoder_vit_b,1,1063,NaN,oven,knife,NaN,knife2-cat3.png
autoencoder_vit_b,1,1064,NaN,airplane,knife,NaN,knife2-dog1.png
autoencoder_vit_b,1,1065,NaN,oven,knife,NaN,knife2-elephant2.png
autoencoder_vit_b,1,1066,NaN,oven,knife,NaN,knife2-truck2.png
autoencoder_vit_b,1,1067,NaN,airplane,knife,NaN,knife3-bear2.png
autoencoder_vit_b,1,1068,NaN,airplane,knife,NaN,knife3-cat1.png
autoencoder_vit_b,1,1069,NaN,airplane,knife,NaN,knife3-clock2.png
autoencoder_vit_b,1,1070,NaN,knife,knife,NaN,knife3-keyboard3.png
autoencoder_vit_b,1,1071,NaN,airplane,knife,NaN,knife3-knife1.png
autoencoder_vit_b,1,1072,NaN,airplane,knife,NaN,knife4-airplane3.png
autoencoder_vit_b,1,1073,NaN,oven,knife,NaN,knife4-bear1.png
autoencoder_vit_b,1,1074,NaN,airplane,knife,NaN,knife4-boat1.png
autoencoder_vit_b,1,1075,NaN,oven,knife,NaN,knife4-car2.png
autoencoder_vit_b,1,1076,NaN,airplane,knife,NaN,knife4-cat2.png
autoencoder_vit_b,1,1077,NaN,airplane,knife,NaN,knife4-clock3.png
autoencoder_vit_b,1,1078,NaN,airplane,knife,NaN,knife4-keyboard1.png
autoencoder_vit_b,1,1079,NaN,airplane,knife,NaN,knife4-knife2.png
autoencoder_vit_b,1,1080,NaN,airplane,knife,NaN,knife4-oven2.png
autoencoder_vit_b,1,1081,NaN,airplane,knife,NaN,knife5-bicycle2.png
autoencoder_vit_b,1,1082,NaN,airplane,knife,NaN,knife5-cat2.png
autoencoder_vit_b,1,1083,NaN,airplane,knife,NaN,knife5-clock1.png
autoencoder_vit_b,1,1084,NaN,airplane,knife,NaN,knife5-dog1.png
autoencoder_vit_b,1,1085,NaN,knife,knife,NaN,knife5-keyboard3.png
autoencoder_vit_b,1,1086,NaN,airplane,knife,NaN,knife5-knife3.png
autoencoder_vit_b,1,1087,NaN,airplane,knife,NaN,knife5-oven2.png
autoencoder_vit_b,1,1088,NaN,airplane,knife,NaN,knife5-truck3.png
