subj,session,trial,rt,object_response,category,condition,imagename
mlp_mixer_b_in21,1,1,NaN,elephant,clock,0,0001_pow_dnn_0_clock_35_n03196217_10246.png
mlp_mixer_b_in21,1,2,NaN,bird,dog,pow,0002_pow_dnn_pow_dog_35_n02091467_7264.png
mlp_mixer_b_in21,1,3,NaN,bird,chair,pow,0003_pow_dnn_pow_chair_35_n02791124_713.png
mlp_mixer_b_in21,1,4,NaN,truck,car,0,0004_pow_dnn_0_car_35_n02814533_35174.png
mlp_mixer_b_in21,1,5,NaN,cat,knife,pow,0005_pow_dnn_pow_knife_35_n03041632_46103.png
mlp_mixer_b_in21,1,6,NaN,truck,bicycle,0,0006_pow_dnn_0_bicycle_35_n03792782_11306.png
mlp_mixer_b_in21,1,7,NaN,dog,bird,0,0007_pow_dnn_0_bird_35_n02002556_3463.png
mlp_mixer_b_in21,1,8,NaN,truck,keyboard,pow,0008_pow_dnn_pow_keyboard_35_n03085013_22813.png
mlp_mixer_b_in21,1,9,NaN,car,bird,0,0009_pow_dnn_0_bird_35_n02025239_2961.png
mlp_mixer_b_in21,1,10,NaN,bird,boat,pow,0010_pow_dnn_pow_boat_35_n02951358_14504.png
mlp_mixer_b_in21,1,11,NaN,bicycle,oven,0,0011_pow_dnn_0_oven_35_n04111531_19000.png
mlp_mixer_b_in21,1,12,NaN,car,bird,0,0012_pow_dnn_0_bird_35_n01614925_11281.png
mlp_mixer_b_in21,1,13,NaN,chair,knife,0,0013_pow_dnn_0_knife_35_n03041632_52040.png
mlp_mixer_b_in21,1,14,NaN,bird,car,pow,0014_pow_dnn_pow_car_35_n03100240_14206.png
mlp_mixer_b_in21,1,15,NaN,dog,bird,0,0015_pow_dnn_0_bird_35_n01817953_689.png
mlp_mixer_b_in21,1,16,NaN,bird,chair,pow,0016_pow_dnn_pow_chair_35_n04099969_7934.png
mlp_mixer_b_in21,1,17,NaN,dog,knife,0,0017_pow_dnn_0_knife_35_n03041632_30196.png
mlp_mixer_b_in21,1,18,NaN,bird,car,0,0018_pow_dnn_0_car_35_n02814533_18077.png
mlp_mixer_b_in21,1,19,NaN,dog,cat,0,0019_pow_dnn_0_cat_35_n02123159_6927.png
mlp_mixer_b_in21,1,20,NaN,bird,bird,pow,0020_pow_dnn_pow_bird_35_n01855672_8550.png
mlp_mixer_b_in21,1,21,NaN,bird,truck,0,0021_pow_dnn_0_truck_35_n03417042_17888.png
mlp_mixer_b_in21,1,22,NaN,bird,truck,pow,0022_pow_dnn_pow_truck_35_n04467665_45611.png
mlp_mixer_b_in21,1,23,NaN,bird,dog,pow,0023_pow_dnn_pow_dog_35_n02093256_1772.png
mlp_mixer_b_in21,1,24,NaN,bird,boat,pow,0024_pow_dnn_pow_boat_35_n03344393_6260.png
mlp_mixer_b_in21,1,25,NaN,bird,chair,0,0025_pow_dnn_0_chair_35_n04429376_24073.png
mlp_mixer_b_in21,1,26,NaN,bird,knife,0,0026_pow_dnn_0_knife_35_n03041632_29355.png
mlp_mixer_b_in21,1,27,NaN,car,clock,0,0027_pow_dnn_0_clock_35_n03196217_5907.png
mlp_mixer_b_in21,1,28,NaN,bird,airplane,0,0028_pow_dnn_0_airplane_35_n02690373_7276.png
mlp_mixer_b_in21,1,29,NaN,bird,bicycle,pow,0029_pow_dnn_pow_bicycle_35_n03792782_15561.png
mlp_mixer_b_in21,1,30,NaN,dog,cat,0,0030_pow_dnn_0_cat_35_n02123045_3505.png
mlp_mixer_b_in21,1,31,NaN,bird,knife,0,0031_pow_dnn_0_knife_35_n03041632_34769.png
mlp_mixer_b_in21,1,32,NaN,cat,clock,pow,0032_pow_dnn_pow_clock_35_n03196217_5206.png
mlp_mixer_b_in21,1,33,NaN,car,truck,0,0033_pow_dnn_0_truck_35_n04467665_58815.png
mlp_mixer_b_in21,1,34,NaN,truck,bird,0,0034_pow_dnn_0_bird_35_n01616318_2186.png
mlp_mixer_b_in21,1,35,NaN,bird,bicycle,pow,0035_pow_dnn_pow_bicycle_35_n03792782_12885.png
mlp_mixer_b_in21,1,36,NaN,bird,airplane,pow,0036_pow_dnn_pow_airplane_35_n02690373_9264.png
mlp_mixer_b_in21,1,37,NaN,dog,chair,0,0037_pow_dnn_0_chair_35_n04099969_16079.png
mlp_mixer_b_in21,1,38,NaN,bird,bicycle,0,0038_pow_dnn_0_bicycle_35_n02835271_3027.png
mlp_mixer_b_in21,1,39,NaN,bottle,airplane,0,0039_pow_dnn_0_airplane_35_n02690373_6614.png
mlp_mixer_b_in21,1,40,NaN,cat,chair,pow,0040_pow_dnn_pow_chair_35_n03376595_9048.png
mlp_mixer_b_in21,1,41,NaN,bird,oven,0,0041_pow_dnn_0_oven_35_n04111531_6094.png
mlp_mixer_b_in21,1,42,NaN,bird,clock,pow,0042_pow_dnn_pow_clock_35_n02708093_687.png
mlp_mixer_b_in21,1,43,NaN,bird,bicycle,pow,0043_pow_dnn_pow_bicycle_35_n03792782_14931.png
mlp_mixer_b_in21,1,44,NaN,cat,bottle,0,0044_pow_dnn_0_bottle_35_n03937543_5567.png
mlp_mixer_b_in21,1,45,NaN,bird,car,0,0045_pow_dnn_0_car_35_n03100240_3073.png
mlp_mixer_b_in21,1,46,NaN,bird,knife,0,0046_pow_dnn_0_knife_35_n03041632_18236.png
mlp_mixer_b_in21,1,47,NaN,bird,knife,pow,0047_pow_dnn_pow_knife_35_n03041632_9302.png
mlp_mixer_b_in21,1,48,NaN,dog,bear,0,0048_pow_dnn_0_bear_35_n02134418_2590.png
mlp_mixer_b_in21,1,49,NaN,bottle,bottle,0,0049_pow_dnn_0_bottle_35_n03983396_24837.png
mlp_mixer_b_in21,1,50,NaN,cat,knife,pow,0050_pow_dnn_pow_knife_35_n03041632_3617.png
mlp_mixer_b_in21,1,51,NaN,dog,bicycle,pow,0051_pow_dnn_pow_bicycle_35_n03792782_6735.png
mlp_mixer_b_in21,1,52,NaN,car,car,0,0052_pow_dnn_0_car_35_n03100240_5387.png
mlp_mixer_b_in21,1,53,NaN,bird,bottle,0,0053_pow_dnn_0_bottle_35_n03983396_4879.png
mlp_mixer_b_in21,1,54,NaN,cat,car,0,0054_pow_dnn_0_car_35_n03100240_6103.png
mlp_mixer_b_in21,1,55,NaN,car,bird,pow,0055_pow_dnn_pow_bird_35_n01796340_9255.png
mlp_mixer_b_in21,1,56,NaN,knife,cat,pow,0056_pow_dnn_pow_cat_35_n02123394_2448.png
mlp_mixer_b_in21,1,57,NaN,chair,car,0,0057_pow_dnn_0_car_35_n04285008_13174.png
mlp_mixer_b_in21,1,58,NaN,bird,chair,pow,0058_pow_dnn_pow_chair_35_n04429376_353.png
mlp_mixer_b_in21,1,59,NaN,bird,boat,pow,0059_pow_dnn_pow_boat_35_n02951358_16261.png
mlp_mixer_b_in21,1,60,NaN,bird,car,pow,0060_pow_dnn_pow_car_35_n04285008_15954.png
mlp_mixer_b_in21,1,61,NaN,bird,truck,pow,0061_pow_dnn_pow_truck_35_n04467665_3411.png
mlp_mixer_b_in21,1,62,NaN,cat,oven,pow,0062_pow_dnn_pow_oven_35_n04111531_15743.png
mlp_mixer_b_in21,1,63,NaN,bird,dog,0,0063_pow_dnn_0_dog_35_n02088238_8653.png
mlp_mixer_b_in21,1,64,NaN,oven,airplane,0,0064_pow_dnn_0_airplane_35_n02690373_4681.png
mlp_mixer_b_in21,1,65,NaN,truck,bear,pow,0065_pow_dnn_pow_bear_35_n02134418_5684.png
mlp_mixer_b_in21,1,66,NaN,bird,bear,pow,0066_pow_dnn_pow_bear_35_n02134418_5830.png
mlp_mixer_b_in21,1,67,NaN,bird,truck,0,0067_pow_dnn_0_truck_35_n04467665_45983.png
mlp_mixer_b_in21,1,68,NaN,truck,bird,0,0068_pow_dnn_0_bird_35_n01795545_14302.png
mlp_mixer_b_in21,1,69,NaN,bird,oven,pow,0069_pow_dnn_pow_oven_35_n04111531_19240.png
mlp_mixer_b_in21,1,70,NaN,bird,knife,0,0070_pow_dnn_0_knife_35_n03041632_22241.png
mlp_mixer_b_in21,1,71,NaN,bird,boat,pow,0071_pow_dnn_pow_boat_35_n03344393_815.png
mlp_mixer_b_in21,1,72,NaN,knife,boat,0,0072_pow_dnn_0_boat_35_n03662601_2120.png
mlp_mixer_b_in21,1,73,NaN,bird,knife,pow,0073_pow_dnn_pow_knife_35_n03041632_2438.png
mlp_mixer_b_in21,1,74,NaN,bird,bear,pow,0074_pow_dnn_pow_bear_35_n02134418_3073.png
mlp_mixer_b_in21,1,75,NaN,bird,bottle,pow,0075_pow_dnn_pow_bottle_35_n02823428_3328.png
mlp_mixer_b_in21,1,76,NaN,bottle,car,pow,0076_pow_dnn_pow_car_35_n04285008_13259.png
mlp_mixer_b_in21,1,77,NaN,bear,oven,0,0077_pow_dnn_0_oven_35_n04111531_15852.png
mlp_mixer_b_in21,1,78,NaN,bird,dog,pow,0078_pow_dnn_pow_dog_35_n02099601_447.png
mlp_mixer_b_in21,1,79,NaN,bird,oven,pow,0079_pow_dnn_pow_oven_35_n04111531_18916.png
mlp_mixer_b_in21,1,80,NaN,bird,bottle,pow,0080_pow_dnn_pow_bottle_35_n04591713_1407.png
mlp_mixer_b_in21,1,81,NaN,car,oven,0,0081_pow_dnn_0_oven_35_n04111531_4585.png
mlp_mixer_b_in21,1,82,NaN,elephant,keyboard,pow,0082_pow_dnn_pow_keyboard_35_n03085013_8364.png
mlp_mixer_b_in21,1,83,NaN,dog,bear,pow,0083_pow_dnn_pow_bear_35_n02132136_15462.png
mlp_mixer_b_in21,1,84,NaN,bird,bicycle,pow,0084_pow_dnn_pow_bicycle_35_n03792782_4167.png
mlp_mixer_b_in21,1,85,NaN,bird,boat,0,0085_pow_dnn_0_boat_35_n03662601_16106.png
mlp_mixer_b_in21,1,86,NaN,elephant,keyboard,pow,0086_pow_dnn_pow_keyboard_35_n03085013_2277.png
mlp_mixer_b_in21,1,87,NaN,knife,airplane,pow,0087_pow_dnn_pow_airplane_35_n02690373_8461.png
mlp_mixer_b_in21,1,88,NaN,bird,chair,pow,0088_pow_dnn_pow_chair_35_n03376595_3304.png
mlp_mixer_b_in21,1,89,NaN,bird,bicycle,0,0089_pow_dnn_0_bicycle_35_n03792782_19116.png
mlp_mixer_b_in21,1,90,NaN,car,clock,0,0090_pow_dnn_0_clock_35_n02708093_6734.png
mlp_mixer_b_in21,1,91,NaN,bird,chair,0,0091_pow_dnn_0_chair_35_n04429376_6480.png
mlp_mixer_b_in21,1,92,NaN,bird,bicycle,pow,0092_pow_dnn_pow_bicycle_35_n02835271_21339.png
mlp_mixer_b_in21,1,93,NaN,knife,keyboard,pow,0093_pow_dnn_pow_keyboard_35_n03085013_3859.png
mlp_mixer_b_in21,1,94,NaN,cat,chair,pow,0094_pow_dnn_pow_chair_35_n03376595_360.png
mlp_mixer_b_in21,1,95,NaN,dog,elephant,pow,0095_pow_dnn_pow_elephant_35_n02504013_18988.png
mlp_mixer_b_in21,1,96,NaN,bird,chair,0,0096_pow_dnn_0_chair_35_n04429376_54570.png
mlp_mixer_b_in21,1,97,NaN,cat,clock,pow,0097_pow_dnn_pow_clock_35_n04548280_5189.png
mlp_mixer_b_in21,1,98,NaN,bird,truck,pow,0098_pow_dnn_pow_truck_35_n04467665_6626.png
mlp_mixer_b_in21,1,99,NaN,bird,boat,0,0099_pow_dnn_0_boat_35_n03344393_3323.png
mlp_mixer_b_in21,1,100,NaN,dog,dog,pow,0100_pow_dnn_pow_dog_35_n02100583_3987.png
mlp_mixer_b_in21,1,101,NaN,dog,elephant,pow,0101_pow_dnn_pow_elephant_35_n02504013_1702.png
mlp_mixer_b_in21,1,102,NaN,bird,truck,pow,0102_pow_dnn_pow_truck_35_n03417042_1841.png
mlp_mixer_b_in21,1,103,NaN,chair,truck,0,0103_pow_dnn_0_truck_35_n03417042_2062.png
mlp_mixer_b_in21,1,104,NaN,car,bottle,0,0104_pow_dnn_0_bottle_35_n03983396_4178.png
mlp_mixer_b_in21,1,105,NaN,bird,keyboard,pow,0105_pow_dnn_pow_keyboard_35_n03085013_1698.png
mlp_mixer_b_in21,1,106,NaN,bird,car,pow,0106_pow_dnn_pow_car_35_n03100240_7056.png
mlp_mixer_b_in21,1,107,NaN,truck,dog,pow,0107_pow_dnn_pow_dog_35_n02100735_3553.png
mlp_mixer_b_in21,1,108,NaN,bird,oven,pow,0108_pow_dnn_pow_oven_35_n04111531_11781.png
mlp_mixer_b_in21,1,109,NaN,dog,cat,0,0109_pow_dnn_0_cat_35_n02123159_4914.png
mlp_mixer_b_in21,1,110,NaN,bird,dog,0,0110_pow_dnn_0_dog_35_n02090622_1852.png
mlp_mixer_b_in21,1,111,NaN,bird,car,pow,0111_pow_dnn_pow_car_35_n03100240_24471.png
mlp_mixer_b_in21,1,112,NaN,bird,boat,pow,0112_pow_dnn_pow_boat_35_n03344393_3519.png
mlp_mixer_b_in21,1,113,NaN,truck,keyboard,pow,0113_pow_dnn_pow_keyboard_35_n03085013_22713.png
mlp_mixer_b_in21,1,114,NaN,dog,elephant,0,0114_pow_dnn_0_elephant_35_n02504013_6615.png
mlp_mixer_b_in21,1,115,NaN,dog,cat,0,0115_pow_dnn_0_cat_35_n02123597_7081.png
mlp_mixer_b_in21,1,116,NaN,bird,clock,pow,0116_pow_dnn_pow_clock_35_n04548280_5406.png
mlp_mixer_b_in21,1,117,NaN,dog,bottle,0,0117_pow_dnn_0_bottle_35_n03983396_21920.png
mlp_mixer_b_in21,1,118,NaN,car,knife,0,0118_pow_dnn_0_knife_35_n03041632_48675.png
mlp_mixer_b_in21,1,119,NaN,elephant,cat,0,0119_pow_dnn_0_cat_35_n02125311_2103.png
mlp_mixer_b_in21,1,120,NaN,clock,bird,pow,0120_pow_dnn_pow_bird_35_n01798484_962.png
mlp_mixer_b_in21,1,121,NaN,bird,oven,pow,0121_pow_dnn_pow_oven_35_n04111531_6393.png
mlp_mixer_b_in21,1,122,NaN,bird,oven,0,0122_pow_dnn_0_oven_35_n04111531_4418.png
mlp_mixer_b_in21,1,123,NaN,bird,truck,pow,0123_pow_dnn_pow_truck_35_n03796401_296.png
mlp_mixer_b_in21,1,124,NaN,bird,bicycle,0,0124_pow_dnn_0_bicycle_35_n02835271_10738.png
mlp_mixer_b_in21,1,125,NaN,dog,elephant,0,0125_pow_dnn_0_elephant_35_n02504013_4457.png
mlp_mixer_b_in21,1,126,NaN,clock,knife,0,0126_pow_dnn_0_knife_35_n03041632_30573.png
mlp_mixer_b_in21,1,127,NaN,bird,boat,0,0127_pow_dnn_0_boat_35_n03662601_19840.png
mlp_mixer_b_in21,1,128,NaN,dog,bear,0,0128_pow_dnn_0_bear_35_n02133161_12167.png
mlp_mixer_b_in21,1,129,NaN,chair,bottle,0,0129_pow_dnn_0_bottle_35_n02823428_3028.png
mlp_mixer_b_in21,1,130,NaN,bird,boat,0,0130_pow_dnn_0_boat_35_n02951358_30149.png
mlp_mixer_b_in21,1,131,NaN,knife,car,0,0131_pow_dnn_0_car_35_n02814533_75419.png
mlp_mixer_b_in21,1,132,NaN,dog,keyboard,0,0132_pow_dnn_0_keyboard_35_n03085013_24449.png
mlp_mixer_b_in21,1,133,NaN,bird,dog,0,0133_pow_dnn_0_dog_35_n02086240_519.png
mlp_mixer_b_in21,1,134,NaN,truck,bird,pow,0134_pow_dnn_pow_bird_35_n01582220_2882.png
mlp_mixer_b_in21,1,135,NaN,elephant,oven,0,0135_pow_dnn_0_oven_35_n04111531_13277.png
mlp_mixer_b_in21,1,136,NaN,bird,bear,pow,0136_pow_dnn_pow_bear_35_n02134084_6901.png
mlp_mixer_b_in21,1,137,NaN,truck,bird,0,0137_pow_dnn_0_bird_35_n02002556_5447.png
mlp_mixer_b_in21,1,138,NaN,car,keyboard,0,0138_pow_dnn_0_keyboard_35_n03085013_20710.png
mlp_mixer_b_in21,1,139,NaN,bird,oven,pow,0139_pow_dnn_pow_oven_35_n04111531_11405.png
mlp_mixer_b_in21,1,140,NaN,dog,bear,pow,0140_pow_dnn_pow_bear_35_n02132136_8457.png
mlp_mixer_b_in21,1,141,NaN,dog,bird,pow,0141_pow_dnn_pow_bird_35_n02009912_6788.png
mlp_mixer_b_in21,1,142,NaN,bird,chair,pow,0142_pow_dnn_pow_chair_35_n04429376_9630.png
mlp_mixer_b_in21,1,143,NaN,cat,keyboard,0,0143_pow_dnn_0_keyboard_35_n03085013_23658.png
mlp_mixer_b_in21,1,144,NaN,dog,cat,pow,0144_pow_dnn_pow_cat_35_n02123045_13199.png
mlp_mixer_b_in21,1,145,NaN,dog,clock,pow,0145_pow_dnn_pow_clock_35_n04548280_6411.png
mlp_mixer_b_in21,1,146,NaN,truck,bird,0,0146_pow_dnn_0_bird_35_n01820546_9729.png
mlp_mixer_b_in21,1,147,NaN,bird,boat,0,0147_pow_dnn_0_boat_35_n04273569_12651.png
mlp_mixer_b_in21,1,148,NaN,bird,elephant,pow,0148_pow_dnn_pow_elephant_35_n02504458_3143.png
mlp_mixer_b_in21,1,149,NaN,car,clock,0,0149_pow_dnn_0_clock_35_n03196217_9786.png
mlp_mixer_b_in21,1,150,NaN,chair,chair,0,0150_pow_dnn_0_chair_35_n03376595_6652.png
mlp_mixer_b_in21,1,151,NaN,cat,bottle,pow,0151_pow_dnn_pow_bottle_35_n03983396_2998.png
mlp_mixer_b_in21,1,152,NaN,dog,elephant,0,0152_pow_dnn_0_elephant_35_n02504458_5331.png
mlp_mixer_b_in21,1,153,NaN,car,car,0,0153_pow_dnn_0_car_35_n04285008_8052.png
mlp_mixer_b_in21,1,154,NaN,boat,bottle,pow,0154_pow_dnn_pow_bottle_35_n04591713_3402.png
mlp_mixer_b_in21,1,155,NaN,truck,bicycle,pow,0155_pow_dnn_pow_bicycle_35_n02835271_1701.png
mlp_mixer_b_in21,1,156,NaN,oven,bicycle,0,0156_pow_dnn_0_bicycle_35_n02835271_5196.png
mlp_mixer_b_in21,1,157,NaN,dog,elephant,pow,0157_pow_dnn_pow_elephant_35_n02504458_5444.png
mlp_mixer_b_in21,1,158,NaN,truck,truck,0,0158_pow_dnn_0_truck_35_n03417042_3422.png
mlp_mixer_b_in21,1,159,NaN,clock,dog,pow,0159_pow_dnn_pow_dog_35_n02088466_1537.png
mlp_mixer_b_in21,1,160,NaN,bird,dog,pow,0160_pow_dnn_pow_dog_35_n02088632_1732.png
mlp_mixer_b_in21,1,161,NaN,bird,truck,0,0161_pow_dnn_0_truck_35_n03796401_3326.png
mlp_mixer_b_in21,1,162,NaN,bird,boat,0,0162_pow_dnn_0_boat_35_n04273569_19796.png
mlp_mixer_b_in21,1,163,NaN,elephant,keyboard,pow,0163_pow_dnn_pow_keyboard_35_n04505470_5125.png
mlp_mixer_b_in21,1,164,NaN,dog,cat,pow,0164_pow_dnn_pow_cat_35_n02123394_1817.png
mlp_mixer_b_in21,1,165,NaN,dog,cat,pow,0165_pow_dnn_pow_cat_35_n02123159_7465.png
mlp_mixer_b_in21,1,166,NaN,bottle,cat,0,0166_pow_dnn_0_cat_35_n02125311_33516.png
mlp_mixer_b_in21,1,167,NaN,truck,bicycle,pow,0167_pow_dnn_pow_bicycle_35_n03792782_30246.png
mlp_mixer_b_in21,1,168,NaN,bird,truck,0,0168_pow_dnn_0_truck_35_n04467665_72639.png
mlp_mixer_b_in21,1,169,NaN,bird,bicycle,0,0169_pow_dnn_0_bicycle_35_n03792782_10395.png
mlp_mixer_b_in21,1,170,NaN,dog,bicycle,pow,0170_pow_dnn_pow_bicycle_35_n02835271_840.png
mlp_mixer_b_in21,1,171,NaN,bird,knife,pow,0171_pow_dnn_pow_knife_35_n03041632_82197.png
mlp_mixer_b_in21,1,172,NaN,bird,airplane,pow,0172_pow_dnn_pow_airplane_35_n02690373_8942.png
mlp_mixer_b_in21,1,173,NaN,clock,keyboard,0,0173_pow_dnn_0_keyboard_35_n03085013_21851.png
mlp_mixer_b_in21,1,174,NaN,cat,clock,pow,0174_pow_dnn_pow_clock_35_n04548280_1106.png
mlp_mixer_b_in21,1,175,NaN,clock,truck,0,0175_pow_dnn_0_truck_35_n03796401_4181.png
mlp_mixer_b_in21,1,176,NaN,bird,knife,pow,0176_pow_dnn_pow_knife_35_n03041632_44019.png
mlp_mixer_b_in21,1,177,NaN,bird,truck,0,0177_pow_dnn_0_truck_35_n03417042_1348.png
mlp_mixer_b_in21,1,178,NaN,chair,chair,0,0178_pow_dnn_0_chair_35_n04099969_10516.png
mlp_mixer_b_in21,1,179,NaN,keyboard,chair,pow,0179_pow_dnn_pow_chair_35_n04099969_24041.png
mlp_mixer_b_in21,1,180,NaN,dog,truck,pow,0180_pow_dnn_pow_truck_35_n03796401_3618.png
mlp_mixer_b_in21,1,181,NaN,dog,elephant,0,0181_pow_dnn_0_elephant_35_n02504458_4414.png
mlp_mixer_b_in21,1,182,NaN,bird,truck,pow,0182_pow_dnn_pow_truck_35_n03796401_3427.png
mlp_mixer_b_in21,1,183,NaN,dog,cat,0,0183_pow_dnn_0_cat_35_n02123045_9907.png
mlp_mixer_b_in21,1,184,NaN,bird,oven,0,0184_pow_dnn_0_oven_35_n04111531_2156.png
mlp_mixer_b_in21,1,185,NaN,truck,bird,pow,0185_pow_dnn_pow_bird_35_n02002556_12696.png
mlp_mixer_b_in21,1,186,NaN,truck,airplane,pow,0186_pow_dnn_pow_airplane_35_n02690373_8791.png
mlp_mixer_b_in21,1,187,NaN,bird,knife,pow,0187_pow_dnn_pow_knife_35_n03041632_27963.png
mlp_mixer_b_in21,1,188,NaN,bird,chair,0,0188_pow_dnn_0_chair_35_n03376595_7772.png
mlp_mixer_b_in21,1,189,NaN,truck,boat,pow,0189_pow_dnn_pow_boat_35_n04273569_3460.png
mlp_mixer_b_in21,1,190,NaN,clock,oven,0,0190_pow_dnn_0_oven_35_n04111531_5694.png
mlp_mixer_b_in21,1,191,NaN,dog,bear,pow,0191_pow_dnn_pow_bear_35_n02134084_17218.png
mlp_mixer_b_in21,1,192,NaN,bird,oven,pow,0192_pow_dnn_pow_oven_35_n04111531_2923.png
mlp_mixer_b_in21,1,193,NaN,knife,keyboard,pow,0193_pow_dnn_pow_keyboard_35_n03085013_22669.png
mlp_mixer_b_in21,1,194,NaN,car,bottle,pow,0194_pow_dnn_pow_bottle_35_n04557648_2282.png
mlp_mixer_b_in21,1,195,NaN,dog,elephant,pow,0195_pow_dnn_pow_elephant_35_n02504013_6693.png
mlp_mixer_b_in21,1,196,NaN,bird,chair,0,0196_pow_dnn_0_chair_35_n04099969_39507.png
mlp_mixer_b_in21,1,197,NaN,car,car,pow,0197_pow_dnn_pow_car_35_n02814533_61184.png
mlp_mixer_b_in21,1,198,NaN,bird,keyboard,pow,0198_pow_dnn_pow_keyboard_35_n04505470_1358.png
mlp_mixer_b_in21,1,199,NaN,bird,truck,pow,0199_pow_dnn_pow_truck_35_n04467665_8824.png
mlp_mixer_b_in21,1,200,NaN,bear,keyboard,0,0200_pow_dnn_0_keyboard_35_n04505470_8937.png
mlp_mixer_b_in21,1,201,NaN,bird,truck,pow,0201_pow_dnn_pow_truck_35_n03417042_7581.png
mlp_mixer_b_in21,1,202,NaN,bird,bicycle,pow,0202_pow_dnn_pow_bicycle_35_n02835271_13234.png
mlp_mixer_b_in21,1,203,NaN,dog,cat,pow,0203_pow_dnn_pow_cat_35_n02124075_3383.png
mlp_mixer_b_in21,1,204,NaN,bird,elephant,pow,0204_pow_dnn_pow_elephant_35_n02504013_474.png
mlp_mixer_b_in21,1,205,NaN,bird,chair,pow,0205_pow_dnn_pow_chair_35_n04429376_1838.png
mlp_mixer_b_in21,1,206,NaN,bird,boat,pow,0206_pow_dnn_pow_boat_35_n02951358_5064.png
mlp_mixer_b_in21,1,207,NaN,elephant,knife,pow,0207_pow_dnn_pow_knife_35_n03041632_31037.png
mlp_mixer_b_in21,1,208,NaN,dog,cat,pow,0208_pow_dnn_pow_cat_35_n02123045_11501.png
mlp_mixer_b_in21,1,209,NaN,bird,keyboard,pow,0209_pow_dnn_pow_keyboard_35_n03085013_17937.png
mlp_mixer_b_in21,1,210,NaN,car,chair,0,0210_pow_dnn_0_chair_35_n03376595_10881.png
mlp_mixer_b_in21,1,211,NaN,dog,elephant,0,0211_pow_dnn_0_elephant_35_n02504458_7302.png
mlp_mixer_b_in21,1,212,NaN,truck,airplane,pow,0212_pow_dnn_pow_airplane_35_n02690373_4704.png
mlp_mixer_b_in21,1,213,NaN,car,car,0,0213_pow_dnn_0_car_35_n03100240_18756.png
mlp_mixer_b_in21,1,214,NaN,dog,keyboard,pow,0214_pow_dnn_pow_keyboard_35_n03085013_20732.png
mlp_mixer_b_in21,1,215,NaN,bird,bottle,pow,0215_pow_dnn_pow_bottle_35_n04579145_2999.png
mlp_mixer_b_in21,1,216,NaN,elephant,clock,pow,0216_pow_dnn_pow_clock_35_n02708093_2546.png
mlp_mixer_b_in21,1,217,NaN,bird,boat,0,0217_pow_dnn_0_boat_35_n03662601_13847.png
mlp_mixer_b_in21,1,218,NaN,bird,bicycle,0,0218_pow_dnn_0_bicycle_35_n03792782_7878.png
mlp_mixer_b_in21,1,219,NaN,clock,knife,pow,0219_pow_dnn_pow_knife_35_n03041632_18959.png
mlp_mixer_b_in21,1,220,NaN,dog,bear,0,0220_pow_dnn_0_bear_35_n02134418_10576.png
mlp_mixer_b_in21,1,221,NaN,bird,elephant,pow,0221_pow_dnn_pow_elephant_35_n02504013_213.png
mlp_mixer_b_in21,1,222,NaN,bird,bottle,pow,0222_pow_dnn_pow_bottle_35_n03983396_2944.png
mlp_mixer_b_in21,1,223,NaN,chair,truck,0,0223_pow_dnn_0_truck_35_n03796401_8964.png
mlp_mixer_b_in21,1,224,NaN,elephant,knife,pow,0224_pow_dnn_pow_knife_35_n03041632_13509.png
mlp_mixer_b_in21,1,225,NaN,bird,bird,pow,0225_pow_dnn_pow_bird_35_n01537544_7301.png
mlp_mixer_b_in21,1,226,NaN,dog,elephant,0,0226_pow_dnn_0_elephant_35_n02504013_9618.png
mlp_mixer_b_in21,1,227,NaN,cat,keyboard,pow,0227_pow_dnn_pow_keyboard_35_n04505470_10191.png
mlp_mixer_b_in21,1,228,NaN,bird,bicycle,pow,0228_pow_dnn_pow_bicycle_35_n02835271_20149.png
mlp_mixer_b_in21,1,229,NaN,bird,truck,0,0229_pow_dnn_0_truck_35_n04467665_2098.png
mlp_mixer_b_in21,1,230,NaN,dog,bear,0,0230_pow_dnn_0_bear_35_n02133161_5274.png
mlp_mixer_b_in21,1,231,NaN,dog,bird,pow,0231_pow_dnn_pow_bird_35_n01537544_20224.png
mlp_mixer_b_in21,1,232,NaN,dog,dog,pow,0232_pow_dnn_pow_dog_35_n02094258_6800.png
mlp_mixer_b_in21,1,233,NaN,chair,truck,0,0233_pow_dnn_0_truck_35_n03417042_27326.png
mlp_mixer_b_in21,1,234,NaN,elephant,oven,pow,0234_pow_dnn_pow_oven_35_n04111531_6955.png
mlp_mixer_b_in21,1,235,NaN,bird,clock,0,0235_pow_dnn_0_clock_35_n04548280_7135.png
mlp_mixer_b_in21,1,236,NaN,keyboard,dog,pow,0236_pow_dnn_pow_dog_35_n02113023_12143.png
mlp_mixer_b_in21,1,237,NaN,bird,bicycle,0,0237_pow_dnn_0_bicycle_35_n02835271_10832.png
mlp_mixer_b_in21,1,238,NaN,bird,chair,pow,0238_pow_dnn_pow_chair_35_n02791124_28.png
mlp_mixer_b_in21,1,239,NaN,bird,bicycle,pow,0239_pow_dnn_pow_bicycle_35_n03792782_1715.png
mlp_mixer_b_in21,1,240,NaN,bird,bicycle,0,0240_pow_dnn_0_bicycle_35_n02835271_19875.png
mlp_mixer_b_in21,1,241,NaN,dog,bird,0,0241_pow_dnn_0_bird_35_n02056570_8203.png
mlp_mixer_b_in21,1,242,NaN,bird,car,pow,0242_pow_dnn_pow_car_35_n02814533_27588.png
mlp_mixer_b_in21,1,243,NaN,car,bear,0,0243_pow_dnn_0_bear_35_n02134418_2714.png
mlp_mixer_b_in21,1,244,NaN,dog,bear,0,0244_pow_dnn_0_bear_35_n02132136_900.png
mlp_mixer_b_in21,1,245,NaN,car,dog,0,0245_pow_dnn_0_dog_35_n02095889_7413.png
mlp_mixer_b_in21,1,246,NaN,bird,boat,0,0246_pow_dnn_0_boat_35_n02951358_14877.png
mlp_mixer_b_in21,1,247,NaN,boat,knife,pow,0247_pow_dnn_pow_knife_35_n03041632_42472.png
mlp_mixer_b_in21,1,248,NaN,bird,bottle,pow,0248_pow_dnn_pow_bottle_35_n02823428_12740.png
mlp_mixer_b_in21,1,249,NaN,car,boat,0,0249_pow_dnn_0_boat_35_n02951358_2537.png
mlp_mixer_b_in21,1,250,NaN,dog,dog,0,0250_pow_dnn_0_dog_35_n02106166_5135.png
mlp_mixer_b_in21,1,251,NaN,bird,oven,pow,0251_pow_dnn_pow_oven_35_n04111531_23046.png
mlp_mixer_b_in21,1,252,NaN,bird,dog,pow,0252_pow_dnn_pow_dog_35_n02105855_3310.png
mlp_mixer_b_in21,1,253,NaN,car,bird,0,0253_pow_dnn_0_bird_35_n01843383_2122.png
mlp_mixer_b_in21,1,254,NaN,bird,boat,pow,0254_pow_dnn_pow_boat_35_n03344393_8407.png
mlp_mixer_b_in21,1,255,NaN,bird,clock,pow,0255_pow_dnn_pow_clock_35_n04548280_4739.png
mlp_mixer_b_in21,1,256,NaN,oven,keyboard,0,0256_pow_dnn_0_keyboard_35_n04505470_3531.png
mlp_mixer_b_in21,1,257,NaN,dog,airplane,pow,0257_pow_dnn_pow_airplane_35_n02690373_7740.png
mlp_mixer_b_in21,1,258,NaN,dog,bear,pow,0258_pow_dnn_pow_bear_35_n02132136_4699.png
mlp_mixer_b_in21,1,259,NaN,boat,airplane,pow,0259_pow_dnn_pow_airplane_35_n02690373_5277.png
mlp_mixer_b_in21,1,260,NaN,bird,clock,pow,0260_pow_dnn_pow_clock_35_n04548280_8841.png
mlp_mixer_b_in21,1,261,NaN,boat,truck,pow,0261_pow_dnn_pow_truck_35_n03796401_142.png
mlp_mixer_b_in21,1,262,NaN,truck,bear,pow,0262_pow_dnn_pow_bear_35_n02134418_4666.png
mlp_mixer_b_in21,1,263,NaN,bird,chair,0,0263_pow_dnn_0_chair_35_n04429376_17074.png
mlp_mixer_b_in21,1,264,NaN,dog,dog,0,0264_pow_dnn_0_dog_35_n02107683_1934.png
mlp_mixer_b_in21,1,265,NaN,bird,bicycle,0,0265_pow_dnn_0_bicycle_35_n03792782_3765.png
mlp_mixer_b_in21,1,266,NaN,dog,elephant,pow,0266_pow_dnn_pow_elephant_35_n02504013_7026.png
mlp_mixer_b_in21,1,267,NaN,boat,clock,pow,0267_pow_dnn_pow_clock_35_n03196217_3063.png
mlp_mixer_b_in21,1,268,NaN,cat,bear,pow,0268_pow_dnn_pow_bear_35_n02134418_1041.png
mlp_mixer_b_in21,1,269,NaN,bird,boat,pow,0269_pow_dnn_pow_boat_35_n03344393_8258.png
mlp_mixer_b_in21,1,270,NaN,elephant,oven,0,0270_pow_dnn_0_oven_35_n04111531_10306.png
mlp_mixer_b_in21,1,271,NaN,knife,bottle,0,0271_pow_dnn_0_bottle_35_n02823428_641.png
mlp_mixer_b_in21,1,272,NaN,bird,oven,pow,0272_pow_dnn_pow_oven_35_n04111531_1873.png
mlp_mixer_b_in21,1,273,NaN,bird,bear,0,0273_pow_dnn_0_bear_35_n02134418_559.png
mlp_mixer_b_in21,1,274,NaN,elephant,keyboard,pow,0274_pow_dnn_pow_keyboard_35_n04505470_4844.png
mlp_mixer_b_in21,1,275,NaN,car,keyboard,0,0275_pow_dnn_0_keyboard_35_n03085013_23291.png
mlp_mixer_b_in21,1,276,NaN,car,car,0,0276_pow_dnn_0_car_35_n03100240_5808.png
mlp_mixer_b_in21,1,277,NaN,dog,bear,0,0277_pow_dnn_0_bear_35_n02134084_15968.png
mlp_mixer_b_in21,1,278,NaN,truck,cat,0,0278_pow_dnn_0_cat_35_n02125311_20238.png
mlp_mixer_b_in21,1,279,NaN,car,bird,0,0279_pow_dnn_0_bird_35_n02028035_8994.png
mlp_mixer_b_in21,1,280,NaN,truck,airplane,pow,0280_pow_dnn_pow_airplane_35_n02690373_4471.png
mlp_mixer_b_in21,1,281,NaN,oven,truck,0,0281_pow_dnn_0_truck_35_n03796401_322.png
mlp_mixer_b_in21,1,282,NaN,elephant,car,pow,0282_pow_dnn_pow_car_35_n04285008_402.png
mlp_mixer_b_in21,1,283,NaN,car,oven,0,0283_pow_dnn_0_oven_35_n04111531_807.png
mlp_mixer_b_in21,1,284,NaN,car,oven,0,0284_pow_dnn_0_oven_35_n04111531_20369.png
mlp_mixer_b_in21,1,285,NaN,knife,knife,pow,0285_pow_dnn_pow_knife_35_n03041632_24114.png
mlp_mixer_b_in21,1,286,NaN,dog,dog,0,0286_pow_dnn_0_dog_35_n02093256_1102.png
mlp_mixer_b_in21,1,287,NaN,bicycle,bottle,0,0287_pow_dnn_0_bottle_35_n03983396_17636.png
mlp_mixer_b_in21,1,288,NaN,clock,bird,0,0288_pow_dnn_0_bird_35_n01855672_55167.png
mlp_mixer_b_in21,1,289,NaN,bear,bottle,0,0289_pow_dnn_0_bottle_35_n02823428_1149.png
mlp_mixer_b_in21,1,290,NaN,bird,truck,pow,0290_pow_dnn_pow_truck_35_n03417042_1182.png
mlp_mixer_b_in21,1,291,NaN,dog,bear,0,0291_pow_dnn_0_bear_35_n02134084_22051.png
mlp_mixer_b_in21,1,292,NaN,dog,cat,pow,0292_pow_dnn_pow_cat_35_n02123159_5170.png
mlp_mixer_b_in21,1,293,NaN,elephant,airplane,pow,0293_pow_dnn_pow_airplane_35_n02690373_4042.png
mlp_mixer_b_in21,1,294,NaN,bird,airplane,pow,0294_pow_dnn_pow_airplane_35_n02690373_6231.png
mlp_mixer_b_in21,1,295,NaN,dog,bear,0,0295_pow_dnn_0_bear_35_n02134418_4657.png
mlp_mixer_b_in21,1,296,NaN,bird,car,0,0296_pow_dnn_0_car_35_n03100240_24505.png
mlp_mixer_b_in21,1,297,NaN,car,bird,0,0297_pow_dnn_0_bird_35_n02006656_4031.png
mlp_mixer_b_in21,1,298,NaN,bird,truck,0,0298_pow_dnn_0_truck_35_n03796401_20861.png
mlp_mixer_b_in21,1,299,NaN,bird,truck,0,0299_pow_dnn_0_truck_35_n03417042_4934.png
mlp_mixer_b_in21,1,300,NaN,cat,bird,0,0300_pow_dnn_0_bird_35_n01824575_3046.png
mlp_mixer_b_in21,1,301,NaN,dog,elephant,pow,0301_pow_dnn_pow_elephant_35_n02504458_3463.png
mlp_mixer_b_in21,1,302,NaN,elephant,airplane,0,0302_pow_dnn_0_airplane_35_n02690373_6914.png
mlp_mixer_b_in21,1,303,NaN,knife,bottle,0,0303_pow_dnn_0_bottle_35_n03983396_3675.png
mlp_mixer_b_in21,1,304,NaN,bird,dog,pow,0304_pow_dnn_pow_dog_35_n02088364_12272.png
mlp_mixer_b_in21,1,305,NaN,dog,dog,0,0305_pow_dnn_0_dog_35_n02085936_1706.png
mlp_mixer_b_in21,1,306,NaN,dog,bear,0,0306_pow_dnn_0_bear_35_n02134084_18372.png
mlp_mixer_b_in21,1,307,NaN,elephant,keyboard,0,0307_pow_dnn_0_keyboard_35_n04505470_751.png
mlp_mixer_b_in21,1,308,NaN,truck,bird,0,0308_pow_dnn_0_bird_35_n02018207_19525.png
mlp_mixer_b_in21,1,309,NaN,bird,bicycle,pow,0309_pow_dnn_pow_bicycle_35_n02835271_3329.png
mlp_mixer_b_in21,1,310,NaN,dog,clock,pow,0310_pow_dnn_pow_clock_35_n04548280_1960.png
mlp_mixer_b_in21,1,311,NaN,bottle,chair,0,0311_pow_dnn_0_chair_35_n03376595_6240.png
mlp_mixer_b_in21,1,312,NaN,bird,knife,pow,0312_pow_dnn_pow_knife_35_n03041632_13194.png
mlp_mixer_b_in21,1,313,NaN,dog,knife,0,0313_pow_dnn_0_knife_35_n03041632_13465.png
mlp_mixer_b_in21,1,314,NaN,dog,cat,pow,0314_pow_dnn_pow_cat_35_n02125311_10174.png
mlp_mixer_b_in21,1,315,NaN,bird,car,pow,0315_pow_dnn_pow_car_35_n02814533_7420.png
mlp_mixer_b_in21,1,316,NaN,bird,truck,pow,0316_pow_dnn_pow_truck_35_n04467665_3876.png
mlp_mixer_b_in21,1,317,NaN,bird,airplane,0,0317_pow_dnn_0_airplane_35_n02690373_12976.png
mlp_mixer_b_in21,1,318,NaN,truck,bear,pow,0318_pow_dnn_pow_bear_35_n02133161_10441.png
mlp_mixer_b_in21,1,319,NaN,bird,chair,pow,0319_pow_dnn_pow_chair_35_n03376595_13703.png
mlp_mixer_b_in21,1,320,NaN,bird,bicycle,pow,0320_pow_dnn_pow_bicycle_35_n03792782_11625.png
mlp_mixer_b_in21,1,321,NaN,bird,oven,pow,0321_pow_dnn_pow_oven_35_n04111531_22797.png
mlp_mixer_b_in21,1,322,NaN,bird,chair,pow,0322_pow_dnn_pow_chair_35_n03376595_9651.png
mlp_mixer_b_in21,1,323,NaN,truck,bicycle,pow,0323_pow_dnn_pow_bicycle_35_n03792782_4830.png
mlp_mixer_b_in21,1,324,NaN,truck,elephant,pow,0324_pow_dnn_pow_elephant_35_n02504013_7191.png
mlp_mixer_b_in21,1,325,NaN,bird,knife,0,0325_pow_dnn_0_knife_35_n03041632_120.png
mlp_mixer_b_in21,1,326,NaN,knife,airplane,pow,0326_pow_dnn_pow_airplane_35_n02690373_5465.png
mlp_mixer_b_in21,1,327,NaN,bird,car,pow,0327_pow_dnn_pow_car_35_n04285008_8443.png
mlp_mixer_b_in21,1,328,NaN,car,bottle,0,0328_pow_dnn_0_bottle_35_n04557648_132.png
mlp_mixer_b_in21,1,329,NaN,knife,airplane,pow,0329_pow_dnn_pow_airplane_35_n02690373_18304.png
mlp_mixer_b_in21,1,330,NaN,dog,knife,pow,0330_pow_dnn_pow_knife_35_n03041632_102764.png
mlp_mixer_b_in21,1,331,NaN,bird,chair,pow,0331_pow_dnn_pow_chair_35_n02791124_16913.png
mlp_mixer_b_in21,1,332,NaN,bird,bicycle,pow,0332_pow_dnn_pow_bicycle_35_n02835271_324.png
mlp_mixer_b_in21,1,333,NaN,knife,airplane,pow,0333_pow_dnn_pow_airplane_35_n02690373_12966.png
mlp_mixer_b_in21,1,334,NaN,bird,keyboard,pow,0334_pow_dnn_pow_keyboard_35_n03085013_24653.png
mlp_mixer_b_in21,1,335,NaN,bird,bicycle,0,0335_pow_dnn_0_bicycle_35_n03792782_18529.png
mlp_mixer_b_in21,1,336,NaN,dog,airplane,pow,0336_pow_dnn_pow_airplane_35_n02690373_2433.png
mlp_mixer_b_in21,1,337,NaN,dog,cat,0,0337_pow_dnn_0_cat_35_n02125311_28447.png
mlp_mixer_b_in21,1,338,NaN,oven,knife,0,0338_pow_dnn_0_knife_35_n03041632_20504.png
mlp_mixer_b_in21,1,339,NaN,truck,bear,pow,0339_pow_dnn_pow_bear_35_n02132136_15870.png
mlp_mixer_b_in21,1,340,NaN,bird,car,0,0340_pow_dnn_0_car_35_n02814533_11273.png
mlp_mixer_b_in21,1,341,NaN,dog,elephant,0,0341_pow_dnn_0_elephant_35_n02504013_2476.png
mlp_mixer_b_in21,1,342,NaN,truck,bear,0,0342_pow_dnn_0_bear_35_n02133161_14945.png
mlp_mixer_b_in21,1,343,NaN,bird,car,0,0343_pow_dnn_0_car_35_n04285008_7870.png
mlp_mixer_b_in21,1,344,NaN,bird,airplane,0,0344_pow_dnn_0_airplane_35_n02690373_10129.png
mlp_mixer_b_in21,1,345,NaN,bird,truck,pow,0345_pow_dnn_pow_truck_35_n03417042_1479.png
mlp_mixer_b_in21,1,346,NaN,car,boat,pow,0346_pow_dnn_pow_boat_35_n04612504_10662.png
mlp_mixer_b_in21,1,347,NaN,dog,bird,0,0347_pow_dnn_0_bird_35_n02056570_5891.png
mlp_mixer_b_in21,1,348,NaN,bird,elephant,pow,0348_pow_dnn_pow_elephant_35_n02504458_5982.png
mlp_mixer_b_in21,1,349,NaN,bird,truck,pow,0349_pow_dnn_pow_truck_35_n03417042_19955.png
mlp_mixer_b_in21,1,350,NaN,bird,oven,0,0350_pow_dnn_0_oven_35_n04111531_6120.png
mlp_mixer_b_in21,1,351,NaN,cat,oven,0,0351_pow_dnn_0_oven_35_n04111531_4750.png
mlp_mixer_b_in21,1,352,NaN,bird,boat,0,0352_pow_dnn_0_boat_35_n02951358_29779.png
mlp_mixer_b_in21,1,353,NaN,knife,bear,0,0353_pow_dnn_0_bear_35_n02134084_14168.png
mlp_mixer_b_in21,1,354,NaN,dog,cat,0,0354_pow_dnn_0_cat_35_n02123597_6990.png
mlp_mixer_b_in21,1,355,NaN,car,chair,0,0355_pow_dnn_0_chair_35_n02791124_2008.png
mlp_mixer_b_in21,1,356,NaN,bird,car,pow,0356_pow_dnn_pow_car_35_n04285008_2185.png
mlp_mixer_b_in21,1,357,NaN,dog,bear,0,0357_pow_dnn_0_bear_35_n02134084_13205.png
mlp_mixer_b_in21,1,358,NaN,car,bird,pow,0358_pow_dnn_pow_bird_35_n01558993_6351.png
mlp_mixer_b_in21,1,359,NaN,bird,bicycle,0,0359_pow_dnn_0_bicycle_35_n02835271_8017.png
mlp_mixer_b_in21,1,360,NaN,dog,cat,0,0360_pow_dnn_0_cat_35_n02124075_4189.png
mlp_mixer_b_in21,1,361,NaN,dog,elephant,pow,0361_pow_dnn_pow_elephant_35_n02504458_3616.png
mlp_mixer_b_in21,1,362,NaN,car,boat,pow,0362_pow_dnn_pow_boat_35_n04612504_8636.png
mlp_mixer_b_in21,1,363,NaN,car,car,pow,0363_pow_dnn_pow_car_35_n03100240_10502.png
mlp_mixer_b_in21,1,364,NaN,bird,bottle,0,0364_pow_dnn_0_bottle_35_n03983396_2271.png
mlp_mixer_b_in21,1,365,NaN,chair,clock,0,0365_pow_dnn_0_clock_35_n04548280_280.png
mlp_mixer_b_in21,1,366,NaN,bird,truck,0,0366_pow_dnn_0_truck_35_n04467665_356.png
mlp_mixer_b_in21,1,367,NaN,bird,airplane,0,0367_pow_dnn_0_airplane_35_n02690373_306.png
mlp_mixer_b_in21,1,368,NaN,car,bird,pow,0368_pow_dnn_pow_bird_35_n02007558_11331.png
mlp_mixer_b_in21,1,369,NaN,bird,dog,0,0369_pow_dnn_0_dog_35_n02105162_1003.png
mlp_mixer_b_in21,1,370,NaN,car,bird,pow,0370_pow_dnn_pow_bird_35_n01534433_11695.png
mlp_mixer_b_in21,1,371,NaN,dog,oven,0,0371_pow_dnn_0_oven_35_n04111531_19631.png
mlp_mixer_b_in21,1,372,NaN,dog,elephant,pow,0372_pow_dnn_pow_elephant_35_n02504013_8534.png
mlp_mixer_b_in21,1,373,NaN,chair,oven,0,0373_pow_dnn_0_oven_35_n04111531_10436.png
mlp_mixer_b_in21,1,374,NaN,bird,airplane,pow,0374_pow_dnn_pow_airplane_35_n02690373_1819.png
mlp_mixer_b_in21,1,375,NaN,dog,cat,0,0375_pow_dnn_0_cat_35_n02123597_14032.png
mlp_mixer_b_in21,1,376,NaN,dog,elephant,0,0376_pow_dnn_0_elephant_35_n02504013_10922.png
mlp_mixer_b_in21,1,377,NaN,bird,boat,0,0377_pow_dnn_0_boat_35_n03662601_81.png
mlp_mixer_b_in21,1,378,NaN,cat,bottle,pow,0378_pow_dnn_pow_bottle_35_n03937543_11347.png
mlp_mixer_b_in21,1,379,NaN,bird,knife,pow,0379_pow_dnn_pow_knife_35_n03041632_85416.png
mlp_mixer_b_in21,1,380,NaN,bird,car,pow,0380_pow_dnn_pow_car_35_n03100240_15676.png
mlp_mixer_b_in21,1,381,NaN,bird,oven,0,0381_pow_dnn_0_oven_35_n04111531_4189.png
mlp_mixer_b_in21,1,382,NaN,truck,car,pow,0382_pow_dnn_pow_car_35_n02814533_65623.png
mlp_mixer_b_in21,1,383,NaN,car,airplane,0,0383_pow_dnn_0_airplane_35_n02690373_4945.png
mlp_mixer_b_in21,1,384,NaN,bird,dog,0,0384_pow_dnn_0_dog_35_n02088364_5801.png
mlp_mixer_b_in21,1,385,NaN,bird,dog,pow,0385_pow_dnn_pow_dog_35_n02108915_8164.png
mlp_mixer_b_in21,1,386,NaN,car,car,0,0386_pow_dnn_0_car_35_n03100240_1435.png
mlp_mixer_b_in21,1,387,NaN,bird,clock,0,0387_pow_dnn_0_clock_35_n03196217_412.png
mlp_mixer_b_in21,1,388,NaN,bird,boat,pow,0388_pow_dnn_pow_boat_35_n03344393_6713.png
mlp_mixer_b_in21,1,389,NaN,bird,knife,0,0389_pow_dnn_0_knife_35_n03041632_4305.png
mlp_mixer_b_in21,1,390,NaN,bird,car,pow,0390_pow_dnn_pow_car_35_n04285008_10287.png
mlp_mixer_b_in21,1,391,NaN,cat,car,pow,0391_pow_dnn_pow_car_35_n04285008_15071.png
mlp_mixer_b_in21,1,392,NaN,bird,knife,pow,0392_pow_dnn_pow_knife_35_n03041632_22214.png
mlp_mixer_b_in21,1,393,NaN,car,boat,pow,0393_pow_dnn_pow_boat_35_n04612504_3064.png
mlp_mixer_b_in21,1,394,NaN,bird,chair,0,0394_pow_dnn_0_chair_35_n02791124_7193.png
mlp_mixer_b_in21,1,395,NaN,bird,boat,0,0395_pow_dnn_0_boat_35_n03344393_5511.png
mlp_mixer_b_in21,1,396,NaN,bird,boat,pow,0396_pow_dnn_pow_boat_35_n04273569_11997.png
mlp_mixer_b_in21,1,397,NaN,clock,bicycle,0,0397_pow_dnn_0_bicycle_35_n03792782_1424.png
mlp_mixer_b_in21,1,398,NaN,bird,clock,pow,0398_pow_dnn_pow_clock_35_n03196217_3362.png
mlp_mixer_b_in21,1,399,NaN,bird,truck,pow,0399_pow_dnn_pow_truck_35_n04467665_21942.png
mlp_mixer_b_in21,1,400,NaN,elephant,oven,0,0400_pow_dnn_0_oven_35_n04111531_6445.png
mlp_mixer_b_in21,1,401,NaN,oven,chair,0,0401_pow_dnn_0_chair_35_n04099969_1163.png
mlp_mixer_b_in21,1,402,NaN,cat,clock,pow,0402_pow_dnn_pow_clock_35_n02708093_3645.png
mlp_mixer_b_in21,1,403,NaN,bear,bicycle,0,0403_pow_dnn_0_bicycle_35_n03792782_68319.png
mlp_mixer_b_in21,1,404,NaN,bird,dog,pow,0404_pow_dnn_pow_dog_35_n02111129_513.png
mlp_mixer_b_in21,1,405,NaN,elephant,airplane,pow,0405_pow_dnn_pow_airplane_35_n02690373_2676.png
mlp_mixer_b_in21,1,406,NaN,truck,airplane,0,0406_pow_dnn_0_airplane_35_n02690373_1206.png
mlp_mixer_b_in21,1,407,NaN,bird,dog,0,0407_pow_dnn_0_dog_35_n02100735_1445.png
mlp_mixer_b_in21,1,408,NaN,bird,dog,pow,0408_pow_dnn_pow_dog_35_n02102040_312.png
mlp_mixer_b_in21,1,409,NaN,knife,keyboard,0,0409_pow_dnn_0_keyboard_35_n03085013_22996.png
mlp_mixer_b_in21,1,410,NaN,bird,boat,0,0410_pow_dnn_0_boat_35_n04612504_434.png
mlp_mixer_b_in21,1,411,NaN,dog,cat,0,0411_pow_dnn_0_cat_35_n02123597_14639.png
mlp_mixer_b_in21,1,412,NaN,dog,cat,pow,0412_pow_dnn_pow_cat_35_n02123159_2043.png
mlp_mixer_b_in21,1,413,NaN,bird,clock,pow,0413_pow_dnn_pow_clock_35_n03196217_3647.png
mlp_mixer_b_in21,1,414,NaN,bird,oven,0,0414_pow_dnn_0_oven_35_n04111531_19795.png
mlp_mixer_b_in21,1,415,NaN,bird,truck,pow,0415_pow_dnn_pow_truck_35_n03417042_18625.png
mlp_mixer_b_in21,1,416,NaN,dog,elephant,pow,0416_pow_dnn_pow_elephant_35_n02504013_1763.png
mlp_mixer_b_in21,1,417,NaN,car,chair,0,0417_pow_dnn_0_chair_35_n04099969_13105.png
mlp_mixer_b_in21,1,418,NaN,bird,bicycle,pow,0418_pow_dnn_pow_bicycle_35_n03792782_4931.png
mlp_mixer_b_in21,1,419,NaN,dog,bear,0,0419_pow_dnn_0_bear_35_n02134418_4513.png
mlp_mixer_b_in21,1,420,NaN,dog,cat,pow,0420_pow_dnn_pow_cat_35_n02123045_11224.png
mlp_mixer_b_in21,1,421,NaN,bird,chair,0,0421_pow_dnn_0_chair_35_n02791124_359.png
mlp_mixer_b_in21,1,422,NaN,dog,clock,pow,0422_pow_dnn_pow_clock_35_n04548280_2654.png
mlp_mixer_b_in21,1,423,NaN,dog,cat,pow,0423_pow_dnn_pow_cat_35_n02123394_4713.png
mlp_mixer_b_in21,1,424,NaN,knife,bottle,pow,0424_pow_dnn_pow_bottle_35_n04557648_94.png
mlp_mixer_b_in21,1,425,NaN,dog,chair,0,0425_pow_dnn_0_chair_35_n04099969_15676.png
mlp_mixer_b_in21,1,426,NaN,boat,boat,pow,0426_pow_dnn_pow_boat_35_n02951358_537.png
mlp_mixer_b_in21,1,427,NaN,car,clock,0,0427_pow_dnn_0_clock_35_n03196217_1376.png
mlp_mixer_b_in21,1,428,NaN,boat,chair,pow,0428_pow_dnn_pow_chair_35_n02791124_1594.png
mlp_mixer_b_in21,1,429,NaN,dog,bird,0,0429_pow_dnn_0_bird_35_n02007558_7112.png
mlp_mixer_b_in21,1,430,NaN,bird,bicycle,0,0430_pow_dnn_0_bicycle_35_n02835271_6094.png
mlp_mixer_b_in21,1,431,NaN,elephant,airplane,pow,0431_pow_dnn_pow_airplane_35_n02690373_7676.png
mlp_mixer_b_in21,1,432,NaN,dog,cat,pow,0432_pow_dnn_pow_cat_35_n02123045_3375.png
mlp_mixer_b_in21,1,433,NaN,truck,bicycle,0,0433_pow_dnn_0_bicycle_35_n02835271_15617.png
mlp_mixer_b_in21,1,434,NaN,bird,oven,pow,0434_pow_dnn_pow_oven_35_n04111531_4904.png
mlp_mixer_b_in21,1,435,NaN,bird,boat,0,0435_pow_dnn_0_boat_35_n02951358_5718.png
mlp_mixer_b_in21,1,436,NaN,clock,elephant,pow,0436_pow_dnn_pow_elephant_35_n02504013_7467.png
mlp_mixer_b_in21,1,437,NaN,dog,elephant,pow,0437_pow_dnn_pow_elephant_35_n02504013_1830.png
mlp_mixer_b_in21,1,438,NaN,bird,car,0,0438_pow_dnn_0_car_35_n02814533_59762.png
mlp_mixer_b_in21,1,439,NaN,bird,bicycle,pow,0439_pow_dnn_pow_bicycle_35_n02835271_771.png
mlp_mixer_b_in21,1,440,NaN,bear,bicycle,pow,0440_pow_dnn_pow_bicycle_35_n02835271_4313.png
mlp_mixer_b_in21,1,441,NaN,dog,bear,0,0441_pow_dnn_0_bear_35_n02132136_891.png
mlp_mixer_b_in21,1,442,NaN,dog,bear,pow,0442_pow_dnn_pow_bear_35_n02132136_18276.png
mlp_mixer_b_in21,1,443,NaN,dog,elephant,pow,0443_pow_dnn_pow_elephant_35_n02504013_2865.png
mlp_mixer_b_in21,1,444,NaN,truck,boat,0,0444_pow_dnn_0_boat_35_n03662601_10120.png
mlp_mixer_b_in21,1,445,NaN,knife,bottle,pow,0445_pow_dnn_pow_bottle_35_n03983396_4241.png
mlp_mixer_b_in21,1,446,NaN,bird,elephant,pow,0446_pow_dnn_pow_elephant_35_n02504458_8254.png
mlp_mixer_b_in21,1,447,NaN,bird,boat,pow,0447_pow_dnn_pow_boat_35_n04612504_857.png
mlp_mixer_b_in21,1,448,NaN,cat,car,pow,0448_pow_dnn_pow_car_35_n04285008_6037.png
mlp_mixer_b_in21,1,449,NaN,dog,elephant,pow,0449_pow_dnn_pow_elephant_35_n02504458_2888.png
mlp_mixer_b_in21,1,450,NaN,dog,elephant,0,0450_pow_dnn_0_elephant_35_n02504013_6257.png
mlp_mixer_b_in21,1,451,NaN,truck,car,0,0451_pow_dnn_0_car_35_n04285008_8616.png
mlp_mixer_b_in21,1,452,NaN,car,bird,0,0452_pow_dnn_0_bird_35_n01537544_5372.png
mlp_mixer_b_in21,1,453,NaN,knife,airplane,pow,0453_pow_dnn_pow_airplane_35_n02690373_2498.png
mlp_mixer_b_in21,1,454,NaN,dog,dog,0,0454_pow_dnn_0_dog_35_n02099601_2980.png
mlp_mixer_b_in21,1,455,NaN,dog,keyboard,pow,0455_pow_dnn_pow_keyboard_35_n04505470_1904.png
mlp_mixer_b_in21,1,456,NaN,bird,airplane,0,0456_pow_dnn_0_airplane_35_n02690373_2967.png
mlp_mixer_b_in21,1,457,NaN,bird,car,0,0457_pow_dnn_0_car_35_n04285008_7508.png
mlp_mixer_b_in21,1,458,NaN,dog,bird,0,0458_pow_dnn_0_bird_35_n02051845_6652.png
mlp_mixer_b_in21,1,459,NaN,bird,truck,pow,0459_pow_dnn_pow_truck_35_n03796401_6737.png
mlp_mixer_b_in21,1,460,NaN,bird,bottle,pow,0460_pow_dnn_pow_bottle_35_n03937543_2177.png
mlp_mixer_b_in21,1,461,NaN,keyboard,keyboard,pow,0461_pow_dnn_pow_keyboard_35_n03085013_6432.png
mlp_mixer_b_in21,1,462,NaN,car,bird,0,0462_pow_dnn_0_bird_35_n01530575_10212.png
mlp_mixer_b_in21,1,463,NaN,bird,boat,pow,0463_pow_dnn_pow_boat_35_n04273569_31649.png
mlp_mixer_b_in21,1,464,NaN,car,keyboard,0,0464_pow_dnn_0_keyboard_35_n04505470_2869.png
mlp_mixer_b_in21,1,465,NaN,chair,oven,0,0465_pow_dnn_0_oven_35_n04111531_5110.png
mlp_mixer_b_in21,1,466,NaN,knife,bottle,pow,0466_pow_dnn_pow_bottle_35_n04579145_4389.png
mlp_mixer_b_in21,1,467,NaN,car,bottle,0,0467_pow_dnn_0_bottle_35_n04557648_9310.png
mlp_mixer_b_in21,1,468,NaN,truck,dog,pow,0468_pow_dnn_pow_dog_35_n02108000_6061.png
mlp_mixer_b_in21,1,469,NaN,bird,knife,pow,0469_pow_dnn_pow_knife_35_n03041632_84240.png
mlp_mixer_b_in21,1,470,NaN,bird,cat,pow,0470_pow_dnn_pow_cat_35_n02123394_3718.png
mlp_mixer_b_in21,1,471,NaN,bird,dog,pow,0471_pow_dnn_pow_dog_35_n02098105_2157.png
mlp_mixer_b_in21,1,472,NaN,car,clock,0,0472_pow_dnn_0_clock_35_n04548280_2601.png
mlp_mixer_b_in21,1,473,NaN,dog,cat,0,0473_pow_dnn_0_cat_35_n02123394_4286.png
mlp_mixer_b_in21,1,474,NaN,truck,bottle,0,0474_pow_dnn_0_bottle_35_n02823428_4569.png
mlp_mixer_b_in21,1,475,NaN,truck,bird,pow,0475_pow_dnn_pow_bird_35_n02017213_15747.png
mlp_mixer_b_in21,1,476,NaN,bird,bicycle,0,0476_pow_dnn_0_bicycle_35_n03792782_11390.png
mlp_mixer_b_in21,1,477,NaN,car,car,0,0477_pow_dnn_0_car_35_n02814533_4374.png
mlp_mixer_b_in21,1,478,NaN,dog,keyboard,0,0478_pow_dnn_0_keyboard_35_n04505470_5137.png
mlp_mixer_b_in21,1,479,NaN,dog,elephant,0,0479_pow_dnn_0_elephant_35_n02504013_306.png
mlp_mixer_b_in21,1,480,NaN,bird,boat,0,0480_pow_dnn_0_boat_35_n02951358_14624.png
mlp_mixer_b_in21,1,481,NaN,elephant,cat,pow,0481_pow_dnn_pow_cat_35_n02125311_28114.png
mlp_mixer_b_in21,1,482,NaN,bird,car,pow,0482_pow_dnn_pow_car_35_n03100240_6259.png
mlp_mixer_b_in21,1,483,NaN,truck,cat,pow,0483_pow_dnn_pow_cat_35_n02125311_12361.png
mlp_mixer_b_in21,1,484,NaN,car,bird,0,0484_pow_dnn_0_bird_35_n01833805_16468.png
mlp_mixer_b_in21,1,485,NaN,dog,dog,pow,0485_pow_dnn_pow_dog_35_n02110063_6748.png
mlp_mixer_b_in21,1,486,NaN,cat,clock,pow,0486_pow_dnn_pow_clock_35_n04548280_2943.png
mlp_mixer_b_in21,1,487,NaN,truck,chair,pow,0487_pow_dnn_pow_chair_35_n03376595_14619.png
mlp_mixer_b_in21,1,488,NaN,bird,car,0,0488_pow_dnn_0_car_35_n03100240_5719.png
mlp_mixer_b_in21,1,489,NaN,bird,dog,0,0489_pow_dnn_0_dog_35_n02093754_4677.png
mlp_mixer_b_in21,1,490,NaN,boat,boat,pow,0490_pow_dnn_pow_boat_35_n04273569_113.png
mlp_mixer_b_in21,1,491,NaN,cat,clock,pow,0491_pow_dnn_pow_clock_35_n02708093_148.png
mlp_mixer_b_in21,1,492,NaN,dog,cat,0,0492_pow_dnn_0_cat_35_n02125311_53223.png
mlp_mixer_b_in21,1,493,NaN,dog,knife,0,0493_pow_dnn_0_knife_35_n03041632_7982.png
mlp_mixer_b_in21,1,494,NaN,dog,elephant,0,0494_pow_dnn_0_elephant_35_n02504013_7273.png
mlp_mixer_b_in21,1,495,NaN,bird,truck,pow,0495_pow_dnn_pow_truck_35_n03417042_26102.png
mlp_mixer_b_in21,1,496,NaN,bird,car,pow,0496_pow_dnn_pow_car_35_n02814533_874.png
mlp_mixer_b_in21,1,497,NaN,bird,bicycle,0,0497_pow_dnn_0_bicycle_35_n03792782_21148.png
mlp_mixer_b_in21,1,498,NaN,car,oven,pow,0498_pow_dnn_pow_oven_35_n04111531_4146.png
mlp_mixer_b_in21,1,499,NaN,chair,keyboard,pow,0499_pow_dnn_pow_keyboard_35_n03085013_21183.png
mlp_mixer_b_in21,1,500,NaN,bird,boat,0,0500_pow_dnn_0_boat_35_n04612504_19147.png
mlp_mixer_b_in21,1,501,NaN,bird,bear,0,0501_pow_dnn_0_bear_35_n02133161_2044.png
mlp_mixer_b_in21,1,502,NaN,bird,bottle,pow,0502_pow_dnn_pow_bottle_35_n04579145_3894.png
mlp_mixer_b_in21,1,503,NaN,bird,bicycle,0,0503_pow_dnn_0_bicycle_35_n03792782_13399.png
mlp_mixer_b_in21,1,504,NaN,bird,knife,pow,0504_pow_dnn_pow_knife_35_n03041632_21818.png
mlp_mixer_b_in21,1,505,NaN,truck,chair,0,0505_pow_dnn_0_chair_35_n03376595_7010.png
mlp_mixer_b_in21,1,506,NaN,bird,oven,0,0506_pow_dnn_0_oven_35_n04111531_4.png
mlp_mixer_b_in21,1,507,NaN,car,bird,pow,0507_pow_dnn_pow_bird_35_n01820546_6471.png
mlp_mixer_b_in21,1,508,NaN,dog,bear,pow,0508_pow_dnn_pow_bear_35_n02132136_10352.png
mlp_mixer_b_in21,1,509,NaN,keyboard,clock,pow,0509_pow_dnn_pow_clock_35_n04548280_8348.png
mlp_mixer_b_in21,1,510,NaN,dog,elephant,0,0510_pow_dnn_0_elephant_35_n02504013_5087.png
mlp_mixer_b_in21,1,511,NaN,elephant,airplane,pow,0511_pow_dnn_pow_airplane_35_n02690373_60.png
mlp_mixer_b_in21,1,512,NaN,bird,chair,pow,0512_pow_dnn_pow_chair_35_n02791124_16085.png
mlp_mixer_b_in21,1,513,NaN,chair,bottle,0,0513_pow_dnn_0_bottle_35_n02823428_3611.png
mlp_mixer_b_in21,1,514,NaN,truck,bird,pow,0514_pow_dnn_pow_bird_35_n01614925_8653.png
mlp_mixer_b_in21,1,515,NaN,car,bird,pow,0515_pow_dnn_pow_bird_35_n01537544_9881.png
mlp_mixer_b_in21,1,516,NaN,bird,knife,0,0516_pow_dnn_0_knife_35_n03041632_35365.png
mlp_mixer_b_in21,1,517,NaN,dog,bear,0,0517_pow_dnn_0_bear_35_n02132136_23202.png
mlp_mixer_b_in21,1,518,NaN,bird,oven,0,0518_pow_dnn_0_oven_35_n04111531_3976.png
mlp_mixer_b_in21,1,519,NaN,bird,chair,pow,0519_pow_dnn_pow_chair_35_n04429376_32124.png
mlp_mixer_b_in21,1,520,NaN,bird,bear,pow,0520_pow_dnn_pow_bear_35_n02134418_848.png
mlp_mixer_b_in21,1,521,NaN,bird,boat,0,0521_pow_dnn_0_boat_35_n03344393_7374.png
mlp_mixer_b_in21,1,522,NaN,truck,bird,pow,0522_pow_dnn_pow_bird_35_n01532829_3914.png
mlp_mixer_b_in21,1,523,NaN,knife,keyboard,0,0523_pow_dnn_0_keyboard_35_n04505470_5902.png
mlp_mixer_b_in21,1,524,NaN,truck,truck,pow,0524_pow_dnn_pow_truck_35_n03417042_11165.png
mlp_mixer_b_in21,1,525,NaN,bear,clock,0,0525_pow_dnn_0_clock_35_n02708093_5.png
mlp_mixer_b_in21,1,526,NaN,dog,elephant,pow,0526_pow_dnn_pow_elephant_35_n02504458_4187.png
mlp_mixer_b_in21,1,527,NaN,car,knife,0,0527_pow_dnn_0_knife_35_n03041632_10802.png
mlp_mixer_b_in21,1,528,NaN,car,car,0,0528_pow_dnn_0_car_35_n04285008_16647.png
mlp_mixer_b_in21,1,529,NaN,dog,dog,0,0529_pow_dnn_0_dog_35_n02104365_3004.png
mlp_mixer_b_in21,1,530,NaN,dog,elephant,pow,0530_pow_dnn_pow_elephant_35_n02504013_21616.png
mlp_mixer_b_in21,1,531,NaN,elephant,keyboard,0,0531_pow_dnn_0_keyboard_35_n03085013_23465.png
mlp_mixer_b_in21,1,532,NaN,bird,airplane,pow,0532_pow_dnn_pow_airplane_35_n02690373_911.png
mlp_mixer_b_in21,1,533,NaN,bird,elephant,0,0533_pow_dnn_0_elephant_35_n02504013_1454.png
mlp_mixer_b_in21,1,534,NaN,bird,bicycle,0,0534_pow_dnn_0_bicycle_35_n03792782_70690.png
mlp_mixer_b_in21,1,535,NaN,bird,chair,0,0535_pow_dnn_0_chair_35_n04429376_31206.png
mlp_mixer_b_in21,1,536,NaN,truck,clock,0,0536_pow_dnn_0_clock_35_n02708093_2498.png
mlp_mixer_b_in21,1,537,NaN,car,keyboard,0,0537_pow_dnn_0_keyboard_35_n04505470_1728.png
mlp_mixer_b_in21,1,538,NaN,bird,truck,pow,0538_pow_dnn_pow_truck_35_n03417042_6608.png
mlp_mixer_b_in21,1,539,NaN,truck,bird,0,0539_pow_dnn_0_bird_35_n02013706_1016.png
mlp_mixer_b_in21,1,540,NaN,bird,clock,0,0540_pow_dnn_0_clock_35_n04548280_5011.png
mlp_mixer_b_in21,1,541,NaN,knife,bicycle,0,0541_pow_dnn_0_bicycle_35_n02835271_19557.png
mlp_mixer_b_in21,1,542,NaN,dog,bear,pow,0542_pow_dnn_pow_bear_35_n02134084_5827.png
mlp_mixer_b_in21,1,543,NaN,dog,dog,pow,0543_pow_dnn_pow_dog_35_n02096585_1894.png
mlp_mixer_b_in21,1,544,NaN,bird,boat,pow,0544_pow_dnn_pow_boat_35_n02951358_34234.png
mlp_mixer_b_in21,1,545,NaN,dog,cat,pow,0545_pow_dnn_pow_cat_35_n02123597_5514.png
mlp_mixer_b_in21,1,546,NaN,bird,oven,pow,0546_pow_dnn_pow_oven_35_n04111531_3580.png
mlp_mixer_b_in21,1,547,NaN,boat,airplane,0,0547_pow_dnn_0_airplane_35_n02690373_7107.png
mlp_mixer_b_in21,1,548,NaN,car,cat,0,0548_pow_dnn_0_cat_35_n02123159_5224.png
mlp_mixer_b_in21,1,549,NaN,dog,bear,pow,0549_pow_dnn_pow_bear_35_n02133161_6679.png
mlp_mixer_b_in21,1,550,NaN,dog,dog,0,0550_pow_dnn_0_dog_35_n02106030_22.png
mlp_mixer_b_in21,1,551,NaN,bird,truck,0,0551_pow_dnn_0_truck_35_n03417042_4574.png
mlp_mixer_b_in21,1,552,NaN,bird,dog,pow,0552_pow_dnn_pow_dog_35_n02097298_7577.png
mlp_mixer_b_in21,1,553,NaN,bird,dog,pow,0553_pow_dnn_pow_dog_35_n02093428_16873.png
mlp_mixer_b_in21,1,554,NaN,dog,bear,0,0554_pow_dnn_0_bear_35_n02132136_4157.png
mlp_mixer_b_in21,1,555,NaN,truck,bottle,0,0555_pow_dnn_0_bottle_35_n02823428_2007.png
mlp_mixer_b_in21,1,556,NaN,dog,keyboard,0,0556_pow_dnn_0_keyboard_35_n03085013_24272.png
mlp_mixer_b_in21,1,557,NaN,bird,oven,0,0557_pow_dnn_0_oven_35_n04111531_2074.png
mlp_mixer_b_in21,1,558,NaN,truck,bird,pow,0558_pow_dnn_pow_bird_35_n01532829_4536.png
mlp_mixer_b_in21,1,559,NaN,dog,dog,0,0559_pow_dnn_0_dog_35_n02109047_17100.png
mlp_mixer_b_in21,1,560,NaN,bird,oven,pow,0560_pow_dnn_pow_oven_35_n04111531_4407.png
mlp_mixer_b_in21,1,561,NaN,bird,airplane,0,0561_pow_dnn_0_airplane_35_n02690373_8069.png
mlp_mixer_b_in21,1,562,NaN,bird,bottle,0,0562_pow_dnn_0_bottle_35_n04560804_8921.png
mlp_mixer_b_in21,1,563,NaN,keyboard,bottle,pow,0563_pow_dnn_pow_bottle_35_n03937543_2936.png
mlp_mixer_b_in21,1,564,NaN,dog,cat,0,0564_pow_dnn_0_cat_35_n02123045_8031.png
mlp_mixer_b_in21,1,565,NaN,oven,oven,0,0565_pow_dnn_0_oven_35_n04111531_3805.png
mlp_mixer_b_in21,1,566,NaN,truck,truck,0,0566_pow_dnn_0_truck_35_n03417042_27231.png
mlp_mixer_b_in21,1,567,NaN,knife,elephant,0,0567_pow_dnn_0_elephant_35_n02504013_7232.png
mlp_mixer_b_in21,1,568,NaN,truck,knife,0,0568_pow_dnn_0_knife_35_n03041632_5102.png
mlp_mixer_b_in21,1,569,NaN,dog,dog,pow,0569_pow_dnn_pow_dog_35_n02110958_8916.png
mlp_mixer_b_in21,1,570,NaN,elephant,bottle,pow,0570_pow_dnn_pow_bottle_35_n04557648_9790.png
mlp_mixer_b_in21,1,571,NaN,dog,cat,pow,0571_pow_dnn_pow_cat_35_n02123394_3786.png
mlp_mixer_b_in21,1,572,NaN,bird,truck,0,0572_pow_dnn_0_truck_35_n04467665_19132.png
mlp_mixer_b_in21,1,573,NaN,bird,truck,pow,0573_pow_dnn_pow_truck_35_n03796401_2934.png
mlp_mixer_b_in21,1,574,NaN,bird,bicycle,0,0574_pow_dnn_0_bicycle_35_n02835271_12799.png
mlp_mixer_b_in21,1,575,NaN,bird,car,0,0575_pow_dnn_0_car_35_n02814533_1297.png
mlp_mixer_b_in21,1,576,NaN,dog,bear,pow,0576_pow_dnn_pow_bear_35_n02134418_1974.png
mlp_mixer_b_in21,1,577,NaN,dog,cat,0,0577_pow_dnn_0_cat_35_n02124075_2843.png
mlp_mixer_b_in21,1,578,NaN,dog,cat,0,0578_pow_dnn_0_cat_35_n02123597_5697.png
mlp_mixer_b_in21,1,579,NaN,bird,bicycle,pow,0579_pow_dnn_pow_bicycle_35_n02835271_2315.png
mlp_mixer_b_in21,1,580,NaN,elephant,keyboard,0,0580_pow_dnn_0_keyboard_35_n04505470_4515.png
mlp_mixer_b_in21,1,581,NaN,cat,knife,pow,0581_pow_dnn_pow_knife_35_n03041632_4269.png
mlp_mixer_b_in21,1,582,NaN,dog,cat,0,0582_pow_dnn_0_cat_35_n02123045_12010.png
mlp_mixer_b_in21,1,583,NaN,bird,clock,0,0583_pow_dnn_0_clock_35_n03196217_6467.png
mlp_mixer_b_in21,1,584,NaN,truck,bottle,pow,0584_pow_dnn_pow_bottle_35_n03983396_2864.png
mlp_mixer_b_in21,1,585,NaN,bird,bottle,0,0585_pow_dnn_0_bottle_35_n04557648_10171.png
mlp_mixer_b_in21,1,586,NaN,clock,bird,pow,0586_pow_dnn_pow_bird_35_n01860187_2052.png
mlp_mixer_b_in21,1,587,NaN,bottle,car,0,0587_pow_dnn_0_car_35_n04285008_5897.png
mlp_mixer_b_in21,1,588,NaN,dog,elephant,0,0588_pow_dnn_0_elephant_35_n02504458_4721.png
mlp_mixer_b_in21,1,589,NaN,bird,car,0,0589_pow_dnn_0_car_35_n02814533_93476.png
mlp_mixer_b_in21,1,590,NaN,truck,bird,pow,0590_pow_dnn_pow_bird_35_n01824575_10337.png
mlp_mixer_b_in21,1,591,NaN,bird,dog,pow,0591_pow_dnn_pow_dog_35_n02100735_10683.png
mlp_mixer_b_in21,1,592,NaN,elephant,airplane,pow,0592_pow_dnn_pow_airplane_35_n02690373_4402.png
mlp_mixer_b_in21,1,593,NaN,truck,airplane,0,0593_pow_dnn_0_airplane_35_n02690373_4350.png
mlp_mixer_b_in21,1,594,NaN,boat,bottle,pow,0594_pow_dnn_pow_bottle_35_n02823428_6327.png
mlp_mixer_b_in21,1,595,NaN,dog,dog,pow,0595_pow_dnn_pow_dog_35_n02104029_3041.png
mlp_mixer_b_in21,1,596,NaN,bird,elephant,pow,0596_pow_dnn_pow_elephant_35_n02504013_24810.png
mlp_mixer_b_in21,1,597,NaN,bird,clock,pow,0597_pow_dnn_pow_clock_35_n04548280_4473.png
mlp_mixer_b_in21,1,598,NaN,bird,dog,pow,0598_pow_dnn_pow_dog_35_n02107908_5597.png
mlp_mixer_b_in21,1,599,NaN,truck,truck,0,0599_pow_dnn_0_truck_35_n04467665_57697.png
mlp_mixer_b_in21,1,600,NaN,boat,bottle,pow,0600_pow_dnn_pow_bottle_35_n03983396_6889.png
mlp_mixer_b_in21,1,601,NaN,bird,bear,pow,0601_pow_dnn_pow_bear_35_n02134418_1826.png
mlp_mixer_b_in21,1,602,NaN,bird,cat,pow,0602_pow_dnn_pow_cat_35_n02123159_4687.png
mlp_mixer_b_in21,1,603,NaN,boat,boat,pow,0603_pow_dnn_pow_boat_35_n03344393_5798.png
mlp_mixer_b_in21,1,604,NaN,bird,car,pow,0604_pow_dnn_pow_car_35_n04285008_11745.png
mlp_mixer_b_in21,1,605,NaN,elephant,clock,0,0605_pow_dnn_0_clock_35_n02708093_353.png
mlp_mixer_b_in21,1,606,NaN,chair,airplane,0,0606_pow_dnn_0_airplane_35_n02690373_4763.png
mlp_mixer_b_in21,1,607,NaN,dog,elephant,0,0607_pow_dnn_0_elephant_35_n02504013_18498.png
mlp_mixer_b_in21,1,608,NaN,bear,cat,pow,0608_pow_dnn_pow_cat_35_n02123394_159.png
mlp_mixer_b_in21,1,609,NaN,chair,boat,0,0609_pow_dnn_0_boat_35_n03662601_18676.png
mlp_mixer_b_in21,1,610,NaN,bird,truck,pow,0610_pow_dnn_pow_truck_35_n03796401_1789.png
mlp_mixer_b_in21,1,611,NaN,bottle,chair,0,0611_pow_dnn_0_chair_35_n04099969_4816.png
mlp_mixer_b_in21,1,612,NaN,dog,elephant,0,0612_pow_dnn_0_elephant_35_n02504458_7013.png
mlp_mixer_b_in21,1,613,NaN,truck,knife,pow,0613_pow_dnn_pow_knife_35_n03041632_92637.png
mlp_mixer_b_in21,1,614,NaN,elephant,keyboard,0,0614_pow_dnn_0_keyboard_35_n03085013_19607.png
mlp_mixer_b_in21,1,615,NaN,dog,cat,pow,0615_pow_dnn_pow_cat_35_n02123597_1027.png
mlp_mixer_b_in21,1,616,NaN,bird,bicycle,0,0616_pow_dnn_0_bicycle_35_n02835271_9135.png
mlp_mixer_b_in21,1,617,NaN,bird,dog,pow,0617_pow_dnn_pow_dog_35_n02111500_3896.png
mlp_mixer_b_in21,1,618,NaN,bird,oven,0,0618_pow_dnn_0_oven_35_n04111531_8398.png
mlp_mixer_b_in21,1,619,NaN,elephant,oven,0,0619_pow_dnn_0_oven_35_n04111531_6049.png
mlp_mixer_b_in21,1,620,NaN,cat,chair,pow,0620_pow_dnn_pow_chair_35_n03376595_6947.png
mlp_mixer_b_in21,1,621,NaN,dog,dog,pow,0621_pow_dnn_pow_dog_35_n02097658_6717.png
mlp_mixer_b_in21,1,622,NaN,bird,knife,0,0622_pow_dnn_0_knife_35_n03041632_21560.png
mlp_mixer_b_in21,1,623,NaN,bird,boat,pow,0623_pow_dnn_pow_boat_35_n03662601_7642.png
mlp_mixer_b_in21,1,624,NaN,bird,car,0,0624_pow_dnn_0_car_35_n04285008_1313.png
mlp_mixer_b_in21,1,625,NaN,car,chair,pow,0625_pow_dnn_pow_chair_35_n03376595_6409.png
mlp_mixer_b_in21,1,626,NaN,dog,bear,pow,0626_pow_dnn_pow_bear_35_n02133161_6028.png
mlp_mixer_b_in21,1,627,NaN,bird,bear,pow,0627_pow_dnn_pow_bear_35_n02132136_29029.png
mlp_mixer_b_in21,1,628,NaN,car,truck,0,0628_pow_dnn_0_truck_35_n04467665_7290.png
mlp_mixer_b_in21,1,629,NaN,car,bird,pow,0629_pow_dnn_pow_bird_35_n01537544_9745.png
mlp_mixer_b_in21,1,630,NaN,bird,bicycle,0,0630_pow_dnn_0_bicycle_35_n03792782_15845.png
mlp_mixer_b_in21,1,631,NaN,bird,bear,pow,0631_pow_dnn_pow_bear_35_n02133161_8982.png
mlp_mixer_b_in21,1,632,NaN,dog,knife,0,0632_pow_dnn_0_knife_35_n03041632_6575.png
mlp_mixer_b_in21,1,633,NaN,elephant,knife,0,0633_pow_dnn_0_knife_35_n03041632_32785.png
mlp_mixer_b_in21,1,634,NaN,bird,chair,pow,0634_pow_dnn_pow_chair_35_n04429376_12691.png
mlp_mixer_b_in21,1,635,NaN,dog,dog,pow,0635_pow_dnn_pow_dog_35_n02097298_6578.png
mlp_mixer_b_in21,1,636,NaN,bird,knife,pow,0636_pow_dnn_pow_knife_35_n03041632_94995.png
mlp_mixer_b_in21,1,637,NaN,chair,clock,0,0637_pow_dnn_0_clock_35_n02708093_41.png
mlp_mixer_b_in21,1,638,NaN,car,keyboard,0,0638_pow_dnn_0_keyboard_35_n03085013_7892.png
mlp_mixer_b_in21,1,639,NaN,bird,knife,pow,0639_pow_dnn_pow_knife_35_n03041632_84048.png
mlp_mixer_b_in21,1,640,NaN,chair,airplane,0,0640_pow_dnn_0_airplane_35_n02690373_3415.png
mlp_mixer_b_in21,1,641,NaN,knife,knife,0,0641_pow_dnn_0_knife_35_n03041632_31483.png
mlp_mixer_b_in21,1,642,NaN,car,dog,0,0642_pow_dnn_0_dog_35_n02110958_368.png
mlp_mixer_b_in21,1,643,NaN,dog,bird,0,0643_pow_dnn_0_bird_35_n02051845_539.png
mlp_mixer_b_in21,1,644,NaN,dog,bear,0,0644_pow_dnn_0_bear_35_n02134084_11187.png
mlp_mixer_b_in21,1,645,NaN,boat,bird,0,0645_pow_dnn_0_bird_35_n01531178_17387.png
mlp_mixer_b_in21,1,646,NaN,elephant,keyboard,0,0646_pow_dnn_0_keyboard_35_n04505470_5131.png
mlp_mixer_b_in21,1,647,NaN,dog,cat,0,0647_pow_dnn_0_cat_35_n02123159_2246.png
mlp_mixer_b_in21,1,648,NaN,bear,oven,0,0648_pow_dnn_0_oven_35_n04111531_1725.png
mlp_mixer_b_in21,1,649,NaN,dog,clock,0,0649_pow_dnn_0_clock_35_n02708093_2295.png
mlp_mixer_b_in21,1,650,NaN,bird,cat,pow,0650_pow_dnn_pow_cat_35_n02125311_5013.png
mlp_mixer_b_in21,1,651,NaN,elephant,keyboard,pow,0651_pow_dnn_pow_keyboard_35_n03085013_24665.png
mlp_mixer_b_in21,1,652,NaN,dog,elephant,pow,0652_pow_dnn_pow_elephant_35_n02504013_9678.png
mlp_mixer_b_in21,1,653,NaN,oven,keyboard,0,0653_pow_dnn_0_keyboard_35_n03085013_7858.png
mlp_mixer_b_in21,1,654,NaN,bird,boat,0,0654_pow_dnn_0_boat_35_n04612504_2089.png
mlp_mixer_b_in21,1,655,NaN,bird,dog,0,0655_pow_dnn_0_dog_35_n02091831_4183.png
mlp_mixer_b_in21,1,656,NaN,dog,cat,0,0656_pow_dnn_0_cat_35_n02125311_475.png
mlp_mixer_b_in21,1,657,NaN,truck,clock,0,0657_pow_dnn_0_clock_35_n03196217_2607.png
mlp_mixer_b_in21,1,658,NaN,bird,car,0,0658_pow_dnn_0_car_35_n02814533_93487.png
mlp_mixer_b_in21,1,659,NaN,bird,dog,0,0659_pow_dnn_0_dog_35_n02108000_6270.png
mlp_mixer_b_in21,1,660,NaN,car,chair,pow,0660_pow_dnn_pow_chair_35_n04099969_20900.png
mlp_mixer_b_in21,1,661,NaN,truck,car,0,0661_pow_dnn_0_car_35_n03100240_8483.png
mlp_mixer_b_in21,1,662,NaN,oven,chair,0,0662_pow_dnn_0_chair_35_n03376595_2056.png
mlp_mixer_b_in21,1,663,NaN,bird,boat,pow,0663_pow_dnn_pow_boat_35_n04612504_2479.png
mlp_mixer_b_in21,1,664,NaN,dog,cat,pow,0664_pow_dnn_pow_cat_35_n02123045_5228.png
mlp_mixer_b_in21,1,665,NaN,car,airplane,0,0665_pow_dnn_0_airplane_35_n02690373_10404.png
mlp_mixer_b_in21,1,666,NaN,elephant,knife,0,0666_pow_dnn_0_knife_35_n03041632_29427.png
mlp_mixer_b_in21,1,667,NaN,bird,oven,0,0667_pow_dnn_0_oven_35_n04111531_7355.png
mlp_mixer_b_in21,1,668,NaN,bird,clock,0,0668_pow_dnn_0_clock_35_n03196217_3333.png
mlp_mixer_b_in21,1,669,NaN,car,bird,0,0669_pow_dnn_0_bird_35_n02027492_9905.png
mlp_mixer_b_in21,1,670,NaN,car,airplane,0,0670_pow_dnn_0_airplane_35_n02690373_9709.png
mlp_mixer_b_in21,1,671,NaN,dog,clock,0,0671_pow_dnn_0_clock_35_n03196217_3558.png
mlp_mixer_b_in21,1,672,NaN,bird,elephant,pow,0672_pow_dnn_pow_elephant_35_n02504013_1854.png
mlp_mixer_b_in21,1,673,NaN,bird,boat,pow,0673_pow_dnn_pow_boat_35_n03662601_15566.png
mlp_mixer_b_in21,1,674,NaN,bird,chair,pow,0674_pow_dnn_pow_chair_35_n03376595_235.png
mlp_mixer_b_in21,1,675,NaN,bird,boat,0,0675_pow_dnn_0_boat_35_n03344393_7669.png
mlp_mixer_b_in21,1,676,NaN,bird,cat,pow,0676_pow_dnn_pow_cat_35_n02123159_4952.png
mlp_mixer_b_in21,1,677,NaN,bird,truck,pow,0677_pow_dnn_pow_truck_35_n03417042_16403.png
mlp_mixer_b_in21,1,678,NaN,bird,dog,pow,0678_pow_dnn_pow_dog_35_n02094258_794.png
mlp_mixer_b_in21,1,679,NaN,bird,knife,0,0679_pow_dnn_0_knife_35_n03041632_3504.png
mlp_mixer_b_in21,1,680,NaN,bird,truck,0,0680_pow_dnn_0_truck_35_n03796401_10878.png
mlp_mixer_b_in21,1,681,NaN,bird,bear,0,0681_pow_dnn_0_bear_35_n02134084_13029.png
mlp_mixer_b_in21,1,682,NaN,car,bird,pow,0682_pow_dnn_pow_bird_35_n01534433_14336.png
mlp_mixer_b_in21,1,683,NaN,bird,bottle,0,0683_pow_dnn_0_bottle_35_n04560804_647.png
mlp_mixer_b_in21,1,684,NaN,bird,airplane,0,0684_pow_dnn_0_airplane_35_n02690373_4107.png
mlp_mixer_b_in21,1,685,NaN,bird,chair,0,0685_pow_dnn_0_chair_35_n04429376_8069.png
mlp_mixer_b_in21,1,686,NaN,bird,oven,pow,0686_pow_dnn_pow_oven_35_n04111531_23668.png
mlp_mixer_b_in21,1,687,NaN,cat,airplane,pow,0687_pow_dnn_pow_airplane_35_n02690373_1071.png
mlp_mixer_b_in21,1,688,NaN,dog,elephant,0,0688_pow_dnn_0_elephant_35_n02504458_7841.png
mlp_mixer_b_in21,1,689,NaN,dog,elephant,0,0689_pow_dnn_0_elephant_35_n02504458_7777.png
mlp_mixer_b_in21,1,690,NaN,knife,clock,0,0690_pow_dnn_0_clock_35_n02708093_8179.png
mlp_mixer_b_in21,1,691,NaN,bird,oven,pow,0691_pow_dnn_pow_oven_35_n04111531_12702.png
mlp_mixer_b_in21,1,692,NaN,bird,oven,pow,0692_pow_dnn_pow_oven_35_n04111531_14441.png
mlp_mixer_b_in21,1,693,NaN,truck,bicycle,0,0693_pow_dnn_0_bicycle_35_n03792782_2435.png
mlp_mixer_b_in21,1,694,NaN,bird,boat,pow,0694_pow_dnn_pow_boat_35_n04273569_23162.png
mlp_mixer_b_in21,1,695,NaN,dog,cat,0,0695_pow_dnn_0_cat_35_n02123159_5270.png
mlp_mixer_b_in21,1,696,NaN,bird,elephant,0,0696_pow_dnn_0_elephant_35_n02504013_3410.png
mlp_mixer_b_in21,1,697,NaN,dog,cat,0,0697_pow_dnn_0_cat_35_n02123394_506.png
mlp_mixer_b_in21,1,698,NaN,bird,bottle,0,0698_pow_dnn_0_bottle_35_n04579145_2202.png
mlp_mixer_b_in21,1,699,NaN,bird,bicycle,pow,0699_pow_dnn_pow_bicycle_35_n03792782_3357.png
mlp_mixer_b_in21,1,700,NaN,bird,bicycle,0,0700_pow_dnn_0_bicycle_35_n03792782_12751.png
mlp_mixer_b_in21,1,701,NaN,dog,cat,pow,0701_pow_dnn_pow_cat_35_n02125311_30246.png
mlp_mixer_b_in21,1,702,NaN,car,keyboard,0,0702_pow_dnn_0_keyboard_35_n04505470_2102.png
mlp_mixer_b_in21,1,703,NaN,cat,bicycle,pow,0703_pow_dnn_pow_bicycle_35_n03792782_51296.png
mlp_mixer_b_in21,1,704,NaN,elephant,keyboard,pow,0704_pow_dnn_pow_keyboard_35_n03085013_29452.png
mlp_mixer_b_in21,1,705,NaN,bird,oven,pow,0705_pow_dnn_pow_oven_35_n04111531_5967.png
mlp_mixer_b_in21,1,706,NaN,bird,bottle,0,0706_pow_dnn_0_bottle_35_n02823428_5850.png
mlp_mixer_b_in21,1,707,NaN,bird,knife,0,0707_pow_dnn_0_knife_35_n03041632_16020.png
mlp_mixer_b_in21,1,708,NaN,bird,bottle,pow,0708_pow_dnn_pow_bottle_35_n02823428_774.png
mlp_mixer_b_in21,1,709,NaN,elephant,bottle,pow,0709_pow_dnn_pow_bottle_35_n04557648_85.png
mlp_mixer_b_in21,1,710,NaN,elephant,clock,0,0710_pow_dnn_0_clock_35_n02708093_7535.png
mlp_mixer_b_in21,1,711,NaN,dog,dog,0,0711_pow_dnn_0_dog_35_n02109961_66260.png
mlp_mixer_b_in21,1,712,NaN,dog,cat,0,0712_pow_dnn_0_cat_35_n02123045_9947.png
mlp_mixer_b_in21,1,713,NaN,car,clock,0,0713_pow_dnn_0_clock_35_n03196217_1519.png
mlp_mixer_b_in21,1,714,NaN,car,keyboard,0,0714_pow_dnn_0_keyboard_35_n03085013_23354.png
mlp_mixer_b_in21,1,715,NaN,bird,bicycle,pow,0715_pow_dnn_pow_bicycle_35_n02835271_3767.png
mlp_mixer_b_in21,1,716,NaN,dog,bottle,0,0716_pow_dnn_0_bottle_35_n03937543_2941.png
mlp_mixer_b_in21,1,717,NaN,bird,chair,0,0717_pow_dnn_0_chair_35_n04099969_2113.png
mlp_mixer_b_in21,1,718,NaN,car,clock,0,0718_pow_dnn_0_clock_35_n03196217_4879.png
mlp_mixer_b_in21,1,719,NaN,cat,clock,0,0719_pow_dnn_0_clock_35_n04548280_16378.png
mlp_mixer_b_in21,1,720,NaN,bird,boat,pow,0720_pow_dnn_pow_boat_35_n03344393_6892.png
mlp_mixer_b_in21,1,721,NaN,bird,knife,0,0721_pow_dnn_0_knife_35_n03041632_45312.png
mlp_mixer_b_in21,1,722,NaN,car,boat,0,0722_pow_dnn_0_boat_35_n02951358_31965.png
mlp_mixer_b_in21,1,723,NaN,bird,cat,pow,0723_pow_dnn_pow_cat_35_n02123159_463.png
mlp_mixer_b_in21,1,724,NaN,dog,truck,0,0724_pow_dnn_0_truck_35_n03417042_213.png
mlp_mixer_b_in21,1,725,NaN,car,knife,0,0725_pow_dnn_0_knife_35_n03041632_383.png
mlp_mixer_b_in21,1,726,NaN,dog,boat,0,0726_pow_dnn_0_boat_35_n03662601_4059.png
mlp_mixer_b_in21,1,727,NaN,bear,dog,0,0727_pow_dnn_0_dog_35_n02088632_2321.png
mlp_mixer_b_in21,1,728,NaN,bird,car,pow,0728_pow_dnn_pow_car_35_n02814533_58196.png
mlp_mixer_b_in21,1,729,NaN,truck,bottle,0,0729_pow_dnn_0_bottle_35_n04591713_5129.png
mlp_mixer_b_in21,1,730,NaN,bird,bicycle,0,0730_pow_dnn_0_bicycle_35_n03792782_3333.png
mlp_mixer_b_in21,1,731,NaN,dog,elephant,0,0731_pow_dnn_0_elephant_35_n02504013_6973.png
mlp_mixer_b_in21,1,732,NaN,car,airplane,0,0732_pow_dnn_0_airplane_35_n02690373_3493.png
mlp_mixer_b_in21,1,733,NaN,cat,bear,pow,0733_pow_dnn_pow_bear_35_n02134084_13588.png
mlp_mixer_b_in21,1,734,NaN,cat,knife,pow,0734_pow_dnn_pow_knife_35_n03041632_29276.png
mlp_mixer_b_in21,1,735,NaN,dog,elephant,0,0735_pow_dnn_0_elephant_35_n02504013_2778.png
mlp_mixer_b_in21,1,736,NaN,cat,keyboard,pow,0736_pow_dnn_pow_keyboard_35_n03085013_22966.png
mlp_mixer_b_in21,1,737,NaN,truck,boat,0,0737_pow_dnn_0_boat_35_n03662601_13754.png
mlp_mixer_b_in21,1,738,NaN,dog,bird,0,0738_pow_dnn_0_bird_35_n02009229_8793.png
mlp_mixer_b_in21,1,739,NaN,cat,oven,pow,0739_pow_dnn_pow_oven_35_n04111531_7283.png
mlp_mixer_b_in21,1,740,NaN,truck,bear,pow,0740_pow_dnn_pow_bear_35_n02133161_505.png
mlp_mixer_b_in21,1,741,NaN,dog,elephant,pow,0741_pow_dnn_pow_elephant_35_n02504458_5320.png
mlp_mixer_b_in21,1,742,NaN,clock,bird,pow,0742_pow_dnn_pow_bird_35_n01829413_943.png
mlp_mixer_b_in21,1,743,NaN,bird,knife,pow,0743_pow_dnn_pow_knife_35_n03041632_4494.png
mlp_mixer_b_in21,1,744,NaN,dog,bird,0,0744_pow_dnn_0_bird_35_n01819313_2722.png
mlp_mixer_b_in21,1,745,NaN,elephant,bottle,pow,0745_pow_dnn_pow_bottle_35_n04557648_1184.png
mlp_mixer_b_in21,1,746,NaN,chair,bottle,0,0746_pow_dnn_0_bottle_35_n03983396_16628.png
mlp_mixer_b_in21,1,747,NaN,bird,car,pow,0747_pow_dnn_pow_car_35_n03100240_4065.png
mlp_mixer_b_in21,1,748,NaN,dog,elephant,pow,0748_pow_dnn_pow_elephant_35_n02504013_6584.png
mlp_mixer_b_in21,1,749,NaN,knife,cat,pow,0749_pow_dnn_pow_cat_35_n02123597_111.png
mlp_mixer_b_in21,1,750,NaN,keyboard,clock,pow,0750_pow_dnn_pow_clock_35_n04548280_17907.png
mlp_mixer_b_in21,1,751,NaN,elephant,airplane,pow,0751_pow_dnn_pow_airplane_35_n02690373_2147.png
mlp_mixer_b_in21,1,752,NaN,cat,airplane,pow,0752_pow_dnn_pow_airplane_35_n02690373_4225.png
mlp_mixer_b_in21,1,753,NaN,car,bottle,pow,0753_pow_dnn_pow_bottle_35_n04591713_1767.png
mlp_mixer_b_in21,1,754,NaN,bird,boat,0,0754_pow_dnn_0_boat_35_n04273569_5767.png
mlp_mixer_b_in21,1,755,NaN,dog,dog,0,0755_pow_dnn_0_dog_35_n02106550_4880.png
mlp_mixer_b_in21,1,756,NaN,bird,truck,0,0756_pow_dnn_0_truck_35_n03417042_3327.png
mlp_mixer_b_in21,1,757,NaN,cat,keyboard,pow,0757_pow_dnn_pow_keyboard_35_n03085013_21325.png
mlp_mixer_b_in21,1,758,NaN,truck,airplane,pow,0758_pow_dnn_pow_airplane_35_n02690373_6755.png
mlp_mixer_b_in21,1,759,NaN,dog,elephant,0,0759_pow_dnn_0_elephant_35_n02504013_1715.png
mlp_mixer_b_in21,1,760,NaN,bird,elephant,pow,0760_pow_dnn_pow_elephant_35_n02504458_3891.png
mlp_mixer_b_in21,1,761,NaN,car,airplane,0,0761_pow_dnn_0_airplane_35_n02690373_6618.png
mlp_mixer_b_in21,1,762,NaN,bird,bicycle,pow,0762_pow_dnn_pow_bicycle_35_n03792782_8172.png
mlp_mixer_b_in21,1,763,NaN,bird,truck,pow,0763_pow_dnn_pow_truck_35_n03796401_3273.png
mlp_mixer_b_in21,1,764,NaN,bird,truck,pow,0764_pow_dnn_pow_truck_35_n03417042_3913.png
mlp_mixer_b_in21,1,765,NaN,bird,boat,0,0765_pow_dnn_0_boat_35_n03344393_10748.png
mlp_mixer_b_in21,1,766,NaN,elephant,knife,0,0766_pow_dnn_0_knife_35_n03041632_11932.png
mlp_mixer_b_in21,1,767,NaN,dog,cat,pow,0767_pow_dnn_pow_cat_35_n02123597_6370.png
mlp_mixer_b_in21,1,768,NaN,bird,dog,pow,0768_pow_dnn_pow_dog_35_n02088364_7145.png
mlp_mixer_b_in21,1,769,NaN,truck,truck,0,0769_pow_dnn_0_truck_35_n04467665_3714.png
mlp_mixer_b_in21,1,770,NaN,car,bottle,0,0770_pow_dnn_0_bottle_35_n03983396_11632.png
mlp_mixer_b_in21,1,771,NaN,car,clock,0,0771_pow_dnn_0_clock_35_n03196217_1234.png
mlp_mixer_b_in21,1,772,NaN,bird,bicycle,pow,0772_pow_dnn_pow_bicycle_35_n03792782_20190.png
mlp_mixer_b_in21,1,773,NaN,dog,cat,0,0773_pow_dnn_0_cat_35_n02123394_1997.png
mlp_mixer_b_in21,1,774,NaN,bird,knife,pow,0774_pow_dnn_pow_knife_35_n03041632_94620.png
mlp_mixer_b_in21,1,775,NaN,bird,boat,0,0775_pow_dnn_0_boat_35_n03344393_8380.png
mlp_mixer_b_in21,1,776,NaN,bird,keyboard,pow,0776_pow_dnn_pow_keyboard_35_n03085013_24793.png
mlp_mixer_b_in21,1,777,NaN,bird,chair,0,0777_pow_dnn_0_chair_35_n04099969_17428.png
mlp_mixer_b_in21,1,778,NaN,dog,bottle,0,0778_pow_dnn_0_bottle_35_n04591713_7164.png
mlp_mixer_b_in21,1,779,NaN,knife,airplane,pow,0779_pow_dnn_pow_airplane_35_n02690373_3269.png
mlp_mixer_b_in21,1,780,NaN,bird,bear,pow,0780_pow_dnn_pow_bear_35_n02133161_1309.png
mlp_mixer_b_in21,1,781,NaN,boat,airplane,pow,0781_pow_dnn_pow_airplane_35_n02690373_5866.png
mlp_mixer_b_in21,1,782,NaN,bird,keyboard,0,0782_pow_dnn_0_keyboard_35_n04505470_8828.png
mlp_mixer_b_in21,1,783,NaN,dog,bear,pow,0783_pow_dnn_pow_bear_35_n02134084_18469.png
mlp_mixer_b_in21,1,784,NaN,bird,truck,pow,0784_pow_dnn_pow_truck_35_n03417042_9610.png
mlp_mixer_b_in21,1,785,NaN,dog,clock,0,0785_pow_dnn_0_clock_35_n03196217_6185.png
mlp_mixer_b_in21,1,786,NaN,bird,oven,pow,0786_pow_dnn_pow_oven_35_n04111531_8805.png
mlp_mixer_b_in21,1,787,NaN,car,bird,pow,0787_pow_dnn_pow_bird_35_n01534433_14255.png
mlp_mixer_b_in21,1,788,NaN,bird,truck,pow,0788_pow_dnn_pow_truck_35_n04467665_3433.png
mlp_mixer_b_in21,1,789,NaN,dog,dog,0,0789_pow_dnn_0_dog_35_n02095570_2009.png
mlp_mixer_b_in21,1,790,NaN,bird,bicycle,pow,0790_pow_dnn_pow_bicycle_35_n02835271_1436.png
mlp_mixer_b_in21,1,791,NaN,elephant,keyboard,0,0791_pow_dnn_0_keyboard_35_n03085013_19759.png
mlp_mixer_b_in21,1,792,NaN,bird,airplane,pow,0792_pow_dnn_pow_airplane_35_n02690373_8521.png
mlp_mixer_b_in21,1,793,NaN,boat,airplane,pow,0793_pow_dnn_pow_airplane_35_n02690373_10510.png
mlp_mixer_b_in21,1,794,NaN,bird,airplane,0,0794_pow_dnn_0_airplane_35_n02690373_8560.png
mlp_mixer_b_in21,1,795,NaN,dog,clock,pow,0795_pow_dnn_pow_clock_35_n04548280_2765.png
mlp_mixer_b_in21,1,796,NaN,knife,knife,0,0796_pow_dnn_0_knife_35_n03041632_13424.png
mlp_mixer_b_in21,1,797,NaN,car,airplane,0,0797_pow_dnn_0_airplane_35_n02690373_2643.png
mlp_mixer_b_in21,1,798,NaN,bird,car,pow,0798_pow_dnn_pow_car_35_n02814533_46997.png
mlp_mixer_b_in21,1,799,NaN,dog,bear,0,0799_pow_dnn_0_bear_35_n02132136_24633.png
mlp_mixer_b_in21,1,800,NaN,bird,truck,pow,0800_pow_dnn_pow_truck_35_n04467665_42823.png
mlp_mixer_b_in21,1,801,NaN,bird,chair,pow,0801_pow_dnn_pow_chair_35_n04429376_13678.png
mlp_mixer_b_in21,1,802,NaN,knife,clock,pow,0802_pow_dnn_pow_clock_35_n03196217_3104.png
mlp_mixer_b_in21,1,803,NaN,car,chair,0,0803_pow_dnn_0_chair_35_n04099969_5364.png
mlp_mixer_b_in21,1,804,NaN,bird,bicycle,pow,0804_pow_dnn_pow_bicycle_35_n03792782_6023.png
mlp_mixer_b_in21,1,805,NaN,bird,bear,pow,0805_pow_dnn_pow_bear_35_n02132136_30306.png
mlp_mixer_b_in21,1,806,NaN,truck,clock,0,0806_pow_dnn_0_clock_35_n04548280_11806.png
mlp_mixer_b_in21,1,807,NaN,cat,bicycle,pow,0807_pow_dnn_pow_bicycle_35_n02835271_5643.png
mlp_mixer_b_in21,1,808,NaN,boat,cat,pow,0808_pow_dnn_pow_cat_35_n02123597_6405.png
mlp_mixer_b_in21,1,809,NaN,bear,oven,0,0809_pow_dnn_0_oven_35_n04111531_14903.png
mlp_mixer_b_in21,1,810,NaN,chair,bird,pow,0810_pow_dnn_pow_bird_35_n01592084_5716.png
mlp_mixer_b_in21,1,811,NaN,dog,cat,0,0811_pow_dnn_0_cat_35_n02123394_1899.png
mlp_mixer_b_in21,1,812,NaN,bird,bottle,0,0812_pow_dnn_0_bottle_35_n04560804_17783.png
mlp_mixer_b_in21,1,813,NaN,dog,dog,pow,0813_pow_dnn_pow_dog_35_n02095570_8343.png
mlp_mixer_b_in21,1,814,NaN,dog,bear,0,0814_pow_dnn_0_bear_35_n02134084_19791.png
mlp_mixer_b_in21,1,815,NaN,dog,bear,pow,0815_pow_dnn_pow_bear_35_n02132136_3603.png
mlp_mixer_b_in21,1,816,NaN,car,chair,0,0816_pow_dnn_0_chair_35_n04429376_14680.png
mlp_mixer_b_in21,1,817,NaN,keyboard,clock,0,0817_pow_dnn_0_clock_35_n04548280_183.png
mlp_mixer_b_in21,1,818,NaN,bird,chair,0,0818_pow_dnn_0_chair_35_n04099969_114.png
mlp_mixer_b_in21,1,819,NaN,chair,bottle,0,0819_pow_dnn_0_bottle_35_n03983396_5093.png
mlp_mixer_b_in21,1,820,NaN,bird,dog,0,0820_pow_dnn_0_dog_35_n02086240_1231.png
mlp_mixer_b_in21,1,821,NaN,bird,airplane,0,0821_pow_dnn_0_airplane_35_n02690373_3729.png
mlp_mixer_b_in21,1,822,NaN,knife,chair,pow,0822_pow_dnn_pow_chair_35_n03376595_11661.png
mlp_mixer_b_in21,1,823,NaN,truck,clock,pow,0823_pow_dnn_pow_clock_35_n04548280_82.png
mlp_mixer_b_in21,1,824,NaN,bird,knife,0,0824_pow_dnn_0_knife_35_n03041632_32377.png
mlp_mixer_b_in21,1,825,NaN,dog,dog,0,0825_pow_dnn_0_dog_35_n02101006_11799.png
mlp_mixer_b_in21,1,826,NaN,bird,bicycle,pow,0826_pow_dnn_pow_bicycle_35_n02835271_747.png
mlp_mixer_b_in21,1,827,NaN,cat,knife,pow,0827_pow_dnn_pow_knife_35_n03041632_85488.png
mlp_mixer_b_in21,1,828,NaN,car,car,0,0828_pow_dnn_0_car_35_n03100240_10244.png
mlp_mixer_b_in21,1,829,NaN,knife,knife,pow,0829_pow_dnn_pow_knife_35_n03041632_27960.png
mlp_mixer_b_in21,1,830,NaN,dog,elephant,0,0830_pow_dnn_0_elephant_35_n02504458_3250.png
mlp_mixer_b_in21,1,831,NaN,cat,keyboard,pow,0831_pow_dnn_pow_keyboard_35_n03085013_4636.png
mlp_mixer_b_in21,1,832,NaN,clock,cat,0,0832_pow_dnn_0_cat_35_n02125311_27218.png
mlp_mixer_b_in21,1,833,NaN,knife,car,pow,0833_pow_dnn_pow_car_35_n02814533_40913.png
mlp_mixer_b_in21,1,834,NaN,bird,boat,pow,0834_pow_dnn_pow_boat_35_n04273569_14262.png
mlp_mixer_b_in21,1,835,NaN,bird,knife,pow,0835_pow_dnn_pow_knife_35_n03041632_32292.png
mlp_mixer_b_in21,1,836,NaN,chair,keyboard,0,0836_pow_dnn_0_keyboard_35_n03085013_6986.png
mlp_mixer_b_in21,1,837,NaN,car,airplane,0,0837_pow_dnn_0_airplane_35_n02690373_2607.png
mlp_mixer_b_in21,1,838,NaN,bottle,knife,pow,0838_pow_dnn_pow_knife_35_n03041632_29858.png
mlp_mixer_b_in21,1,839,NaN,car,car,0,0839_pow_dnn_0_car_35_n03100240_17108.png
mlp_mixer_b_in21,1,840,NaN,bird,bicycle,0,0840_pow_dnn_0_bicycle_35_n03792782_7713.png
mlp_mixer_b_in21,1,841,NaN,oven,oven,0,0841_pow_dnn_0_oven_35_n04111531_1050.png
mlp_mixer_b_in21,1,842,NaN,oven,bird,0,0842_pow_dnn_0_bird_35_n01829413_6608.png
mlp_mixer_b_in21,1,843,NaN,dog,bear,0,0843_pow_dnn_0_bear_35_n02134084_23292.png
mlp_mixer_b_in21,1,844,NaN,truck,bird,pow,0844_pow_dnn_pow_bird_35_n02017213_5095.png
mlp_mixer_b_in21,1,845,NaN,dog,bear,pow,0845_pow_dnn_pow_bear_35_n02134084_22032.png
mlp_mixer_b_in21,1,846,NaN,elephant,keyboard,pow,0846_pow_dnn_pow_keyboard_35_n03085013_20882.png
mlp_mixer_b_in21,1,847,NaN,bird,elephant,0,0847_pow_dnn_0_elephant_35_n02504458_568.png
mlp_mixer_b_in21,1,848,NaN,car,bottle,0,0848_pow_dnn_0_bottle_35_n03983396_10013.png
mlp_mixer_b_in21,1,849,NaN,dog,elephant,0,0849_pow_dnn_0_elephant_35_n02504013_354.png
mlp_mixer_b_in21,1,850,NaN,car,bird,0,0850_pow_dnn_0_bird_35_n01534433_4900.png
mlp_mixer_b_in21,1,851,NaN,bird,dog,pow,0851_pow_dnn_pow_dog_35_n02110185_8777.png
mlp_mixer_b_in21,1,852,NaN,oven,chair,0,0852_pow_dnn_0_chair_35_n04099969_9713.png
mlp_mixer_b_in21,1,853,NaN,truck,airplane,pow,0853_pow_dnn_pow_airplane_35_n02690373_10931.png
mlp_mixer_b_in21,1,854,NaN,clock,oven,pow,0854_pow_dnn_pow_oven_35_n04111531_18949.png
mlp_mixer_b_in21,1,855,NaN,bird,oven,pow,0855_pow_dnn_pow_oven_35_n04111531_3193.png
mlp_mixer_b_in21,1,856,NaN,clock,bird,pow,0856_pow_dnn_pow_bird_35_n01796340_11783.png
mlp_mixer_b_in21,1,857,NaN,dog,bear,pow,0857_pow_dnn_pow_bear_35_n02134418_4452.png
mlp_mixer_b_in21,1,858,NaN,dog,clock,pow,0858_pow_dnn_pow_clock_35_n04548280_4947.png
mlp_mixer_b_in21,1,859,NaN,dog,elephant,0,0859_pow_dnn_0_elephant_35_n02504458_13382.png
mlp_mixer_b_in21,1,860,NaN,bird,knife,pow,0860_pow_dnn_pow_knife_35_n03041632_37513.png
mlp_mixer_b_in21,1,861,NaN,bottle,keyboard,pow,0861_pow_dnn_pow_keyboard_35_n04505470_7728.png
mlp_mixer_b_in21,1,862,NaN,bird,car,pow,0862_pow_dnn_pow_car_35_n02814533_39666.png
mlp_mixer_b_in21,1,863,NaN,car,bird,0,0863_pow_dnn_0_bird_35_n01537544_292.png
mlp_mixer_b_in21,1,864,NaN,dog,cat,0,0864_pow_dnn_0_cat_35_n02123045_939.png
mlp_mixer_b_in21,1,865,NaN,bird,oven,pow,0865_pow_dnn_pow_oven_35_n04111531_14269.png
mlp_mixer_b_in21,1,866,NaN,car,chair,0,0866_pow_dnn_0_chair_35_n04429376_16372.png
mlp_mixer_b_in21,1,867,NaN,elephant,bird,0,0867_pow_dnn_0_bird_35_n02027492_7770.png
mlp_mixer_b_in21,1,868,NaN,truck,bird,pow,0868_pow_dnn_pow_bird_35_n01818515_10185.png
mlp_mixer_b_in21,1,869,NaN,bird,boat,0,0869_pow_dnn_0_boat_35_n03344393_12983.png
mlp_mixer_b_in21,1,870,NaN,truck,car,0,0870_pow_dnn_0_car_35_n03100240_17583.png
mlp_mixer_b_in21,1,871,NaN,elephant,airplane,0,0871_pow_dnn_0_airplane_35_n02690373_13384.png
mlp_mixer_b_in21,1,872,NaN,bird,boat,pow,0872_pow_dnn_pow_boat_35_n02951358_912.png
mlp_mixer_b_in21,1,873,NaN,truck,elephant,pow,0873_pow_dnn_pow_elephant_35_n02504013_482.png
mlp_mixer_b_in21,1,874,NaN,cat,chair,pow,0874_pow_dnn_pow_chair_35_n03376595_3239.png
mlp_mixer_b_in21,1,875,NaN,dog,cat,0,0875_pow_dnn_0_cat_35_n02123394_5586.png
mlp_mixer_b_in21,1,876,NaN,bird,chair,pow,0876_pow_dnn_pow_chair_35_n02791124_3018.png
mlp_mixer_b_in21,1,877,NaN,bird,oven,0,0877_pow_dnn_0_oven_35_n04111531_13172.png
mlp_mixer_b_in21,1,878,NaN,bird,dog,0,0878_pow_dnn_0_dog_35_n02086646_7920.png
mlp_mixer_b_in21,1,879,NaN,dog,elephant,0,0879_pow_dnn_0_elephant_35_n02504013_6141.png
mlp_mixer_b_in21,1,880,NaN,bear,keyboard,pow,0880_pow_dnn_pow_keyboard_35_n04505470_4761.png
mlp_mixer_b_in21,1,881,NaN,truck,dog,0,0881_pow_dnn_0_dog_35_n02102973_7681.png
mlp_mixer_b_in21,1,882,NaN,elephant,keyboard,0,0882_pow_dnn_0_keyboard_35_n03085013_19343.png
mlp_mixer_b_in21,1,883,NaN,bird,airplane,0,0883_pow_dnn_0_airplane_35_n02690373_7281.png
mlp_mixer_b_in21,1,884,NaN,bird,bear,pow,0884_pow_dnn_pow_bear_35_n02134418_904.png
mlp_mixer_b_in21,1,885,NaN,bird,clock,0,0885_pow_dnn_0_clock_35_n03196217_713.png
mlp_mixer_b_in21,1,886,NaN,bear,boat,pow,0886_pow_dnn_pow_boat_35_n04612504_22353.png
mlp_mixer_b_in21,1,887,NaN,chair,clock,0,0887_pow_dnn_0_clock_35_n04548280_4768.png
mlp_mixer_b_in21,1,888,NaN,bird,airplane,pow,0888_pow_dnn_pow_airplane_35_n02690373_10455.png
mlp_mixer_b_in21,1,889,NaN,dog,dog,0,0889_pow_dnn_0_dog_35_n02099601_11986.png
mlp_mixer_b_in21,1,890,NaN,truck,oven,pow,0890_pow_dnn_pow_oven_35_n04111531_5212.png
mlp_mixer_b_in21,1,891,NaN,bird,bear,0,0891_pow_dnn_0_bear_35_n02132136_10654.png
mlp_mixer_b_in21,1,892,NaN,bird,chair,0,0892_pow_dnn_0_chair_35_n02791124_45.png
mlp_mixer_b_in21,1,893,NaN,chair,car,0,0893_pow_dnn_0_car_35_n02814533_3561.png
mlp_mixer_b_in21,1,894,NaN,knife,keyboard,pow,0894_pow_dnn_pow_keyboard_35_n03085013_19618.png
mlp_mixer_b_in21,1,895,NaN,clock,bird,pow,0895_pow_dnn_pow_bird_35_n02009229_1091.png
mlp_mixer_b_in21,1,896,NaN,bird,knife,0,0896_pow_dnn_0_knife_35_n03041632_7380.png
mlp_mixer_b_in21,1,897,NaN,bird,chair,pow,0897_pow_dnn_pow_chair_35_n04099969_24378.png
mlp_mixer_b_in21,1,898,NaN,bird,bear,pow,0898_pow_dnn_pow_bear_35_n02134418_2298.png
mlp_mixer_b_in21,1,899,NaN,clock,bird,pow,0899_pow_dnn_pow_bird_35_n02017213_4528.png
mlp_mixer_b_in21,1,900,NaN,bird,car,pow,0900_pow_dnn_pow_car_35_n04285008_7776.png
mlp_mixer_b_in21,1,901,NaN,bird,bottle,pow,0901_pow_dnn_pow_bottle_35_n04591713_6827.png
mlp_mixer_b_in21,1,902,NaN,bird,car,0,0902_pow_dnn_0_car_35_n02814533_13079.png
mlp_mixer_b_in21,1,903,NaN,truck,bicycle,0,0903_pow_dnn_0_bicycle_35_n02835271_22263.png
mlp_mixer_b_in21,1,904,NaN,bird,cat,0,0904_pow_dnn_0_cat_35_n02123159_643.png
mlp_mixer_b_in21,1,905,NaN,bear,bicycle,0,0905_pow_dnn_0_bicycle_35_n02835271_18537.png
mlp_mixer_b_in21,1,906,NaN,bird,boat,0,0906_pow_dnn_0_boat_35_n04612504_18536.png
mlp_mixer_b_in21,1,907,NaN,bird,bottle,pow,0907_pow_dnn_pow_bottle_35_n02823428_1733.png
mlp_mixer_b_in21,1,908,NaN,bird,elephant,pow,0908_pow_dnn_pow_elephant_35_n02504013_7309.png
mlp_mixer_b_in21,1,909,NaN,bird,bottle,pow,0909_pow_dnn_pow_bottle_35_n03983396_2256.png
mlp_mixer_b_in21,1,910,NaN,bird,chair,pow,0910_pow_dnn_pow_chair_35_n02791124_13435.png
mlp_mixer_b_in21,1,911,NaN,dog,bear,0,0911_pow_dnn_0_bear_35_n02134084_15558.png
mlp_mixer_b_in21,1,912,NaN,boat,airplane,0,0912_pow_dnn_0_airplane_35_n02690373_5714.png
mlp_mixer_b_in21,1,913,NaN,truck,bird,pow,0913_pow_dnn_pow_bird_35_n01514859_12245.png
mlp_mixer_b_in21,1,914,NaN,cat,keyboard,pow,0914_pow_dnn_pow_keyboard_35_n03085013_22386.png
mlp_mixer_b_in21,1,915,NaN,dog,elephant,pow,0915_pow_dnn_pow_elephant_35_n02504458_4716.png
mlp_mixer_b_in21,1,916,NaN,keyboard,truck,0,0916_pow_dnn_0_truck_35_n03417042_3659.png
mlp_mixer_b_in21,1,917,NaN,car,bottle,0,0917_pow_dnn_0_bottle_35_n03937543_1680.png
mlp_mixer_b_in21,1,918,NaN,bird,boat,0,0918_pow_dnn_0_boat_35_n02951358_18804.png
mlp_mixer_b_in21,1,919,NaN,bird,dog,0,0919_pow_dnn_0_dog_35_n02091032_250.png
mlp_mixer_b_in21,1,920,NaN,clock,bird,pow,0920_pow_dnn_pow_bird_35_n01860187_486.png
mlp_mixer_b_in21,1,921,NaN,bird,dog,pow,0921_pow_dnn_pow_dog_35_n02105641_6742.png
mlp_mixer_b_in21,1,922,NaN,chair,bottle,0,0922_pow_dnn_0_bottle_35_n03983396_6281.png
mlp_mixer_b_in21,1,923,NaN,dog,elephant,0,0923_pow_dnn_0_elephant_35_n02504458_4463.png
mlp_mixer_b_in21,1,924,NaN,dog,cat,pow,0924_pow_dnn_pow_cat_35_n02125311_8963.png
mlp_mixer_b_in21,1,925,NaN,bird,truck,pow,0925_pow_dnn_pow_truck_35_n04467665_31539.png
mlp_mixer_b_in21,1,926,NaN,dog,clock,0,0926_pow_dnn_0_clock_35_n03196217_5300.png
mlp_mixer_b_in21,1,927,NaN,dog,bird,0,0927_pow_dnn_0_bird_35_n01833805_7528.png
mlp_mixer_b_in21,1,928,NaN,car,oven,0,0928_pow_dnn_0_oven_35_n04111531_13296.png
mlp_mixer_b_in21,1,929,NaN,bird,truck,0,0929_pow_dnn_0_truck_35_n03796401_22759.png
mlp_mixer_b_in21,1,930,NaN,elephant,clock,0,0930_pow_dnn_0_clock_35_n03196217_3762.png
mlp_mixer_b_in21,1,931,NaN,dog,bear,pow,0931_pow_dnn_pow_bear_35_n02132136_31257.png
mlp_mixer_b_in21,1,932,NaN,dog,dog,0,0932_pow_dnn_0_dog_35_n02111500_3947.png
mlp_mixer_b_in21,1,933,NaN,dog,cat,0,0933_pow_dnn_0_cat_35_n02123394_593.png
mlp_mixer_b_in21,1,934,NaN,bird,dog,pow,0934_pow_dnn_pow_dog_35_n02104029_54.png
mlp_mixer_b_in21,1,935,NaN,cat,clock,pow,0935_pow_dnn_pow_clock_35_n02708093_2283.png
mlp_mixer_b_in21,1,936,NaN,bird,chair,0,0936_pow_dnn_0_chair_35_n03376595_7660.png
mlp_mixer_b_in21,1,937,NaN,truck,truck,0,0937_pow_dnn_0_truck_35_n04467665_68137.png
mlp_mixer_b_in21,1,938,NaN,bird,truck,pow,0938_pow_dnn_pow_truck_35_n03417042_24155.png
mlp_mixer_b_in21,1,939,NaN,bear,keyboard,0,0939_pow_dnn_0_keyboard_35_n03085013_3656.png
mlp_mixer_b_in21,1,940,NaN,knife,car,pow,0940_pow_dnn_pow_car_35_n02814533_40876.png
mlp_mixer_b_in21,1,941,NaN,cat,keyboard,pow,0941_pow_dnn_pow_keyboard_35_n03085013_24087.png
mlp_mixer_b_in21,1,942,NaN,car,car,0,0942_pow_dnn_0_car_35_n03100240_9150.png
mlp_mixer_b_in21,1,943,NaN,oven,keyboard,0,0943_pow_dnn_0_keyboard_35_n03085013_7058.png
mlp_mixer_b_in21,1,944,NaN,dog,dog,0,0944_pow_dnn_0_dog_35_n02113624_1707.png
mlp_mixer_b_in21,1,945,NaN,truck,truck,0,0945_pow_dnn_0_truck_35_n03796401_5873.png
mlp_mixer_b_in21,1,946,NaN,cat,clock,pow,0946_pow_dnn_pow_clock_35_n02708093_6822.png
mlp_mixer_b_in21,1,947,NaN,bird,oven,pow,0947_pow_dnn_pow_oven_35_n04111531_7883.png
mlp_mixer_b_in21,1,948,NaN,knife,boat,pow,0948_pow_dnn_pow_boat_35_n04273569_28992.png
mlp_mixer_b_in21,1,949,NaN,clock,knife,0,0949_pow_dnn_0_knife_35_n03041632_46720.png
mlp_mixer_b_in21,1,950,NaN,elephant,car,pow,0950_pow_dnn_pow_car_35_n04285008_8465.png
mlp_mixer_b_in21,1,951,NaN,bird,bicycle,0,0951_pow_dnn_0_bicycle_35_n02835271_8271.png
mlp_mixer_b_in21,1,952,NaN,dog,elephant,0,0952_pow_dnn_0_elephant_35_n02504013_891.png
mlp_mixer_b_in21,1,953,NaN,bird,clock,pow,0953_pow_dnn_pow_clock_35_n02708093_3755.png
mlp_mixer_b_in21,1,954,NaN,bird,knife,pow,0954_pow_dnn_pow_knife_35_n03041632_10777.png
mlp_mixer_b_in21,1,955,NaN,cat,keyboard,pow,0955_pow_dnn_pow_keyboard_35_n03085013_24591.png
mlp_mixer_b_in21,1,956,NaN,car,bird,0,0956_pow_dnn_0_bird_35_n01817953_31391.png
mlp_mixer_b_in21,1,957,NaN,bird,boat,pow,0957_pow_dnn_pow_boat_35_n03344393_6978.png
mlp_mixer_b_in21,1,958,NaN,chair,boat,pow,0958_pow_dnn_pow_boat_35_n04273569_23293.png
mlp_mixer_b_in21,1,959,NaN,bird,oven,0,0959_pow_dnn_0_oven_35_n04111531_5582.png
mlp_mixer_b_in21,1,960,NaN,dog,bear,0,0960_pow_dnn_0_bear_35_n02134084_9774.png
mlp_mixer_b_in21,1,961,NaN,knife,clock,pow,0961_pow_dnn_pow_clock_35_n04548280_2362.png
mlp_mixer_b_in21,1,962,NaN,bird,car,pow,0962_pow_dnn_pow_car_35_n02814533_24730.png
mlp_mixer_b_in21,1,963,NaN,cat,bottle,pow,0963_pow_dnn_pow_bottle_35_n02823428_6250.png
mlp_mixer_b_in21,1,964,NaN,dog,bear,0,0964_pow_dnn_0_bear_35_n02132136_10979.png
mlp_mixer_b_in21,1,965,NaN,bird,bicycle,0,0965_pow_dnn_0_bicycle_35_n02835271_24131.png
mlp_mixer_b_in21,1,966,NaN,bicycle,clock,0,0966_pow_dnn_0_clock_35_n02708093_3509.png
mlp_mixer_b_in21,1,967,NaN,bird,airplane,0,0967_pow_dnn_0_airplane_35_n02690373_3032.png
mlp_mixer_b_in21,1,968,NaN,knife,bottle,pow,0968_pow_dnn_pow_bottle_35_n04560804_3847.png
mlp_mixer_b_in21,1,969,NaN,dog,bear,0,0969_pow_dnn_0_bear_35_n02134418_261.png
mlp_mixer_b_in21,1,970,NaN,elephant,oven,0,0970_pow_dnn_0_oven_35_n04111531_10476.png
mlp_mixer_b_in21,1,971,NaN,car,chair,0,0971_pow_dnn_0_chair_35_n02791124_2003.png
mlp_mixer_b_in21,1,972,NaN,oven,bottle,0,0972_pow_dnn_0_bottle_35_n03983396_12525.png
mlp_mixer_b_in21,1,973,NaN,truck,oven,pow,0973_pow_dnn_pow_oven_35_n04111531_2462.png
mlp_mixer_b_in21,1,974,NaN,truck,bicycle,0,0974_pow_dnn_0_bicycle_35_n02835271_27777.png
mlp_mixer_b_in21,1,975,NaN,bird,oven,pow,0975_pow_dnn_pow_oven_35_n04111531_20591.png
mlp_mixer_b_in21,1,976,NaN,car,airplane,0,0976_pow_dnn_0_airplane_35_n02690373_4873.png
mlp_mixer_b_in21,1,977,NaN,bear,car,pow,0977_pow_dnn_pow_car_35_n02814533_3754.png
mlp_mixer_b_in21,1,978,NaN,elephant,keyboard,pow,0978_pow_dnn_pow_keyboard_35_n03085013_19416.png
mlp_mixer_b_in21,1,979,NaN,dog,oven,pow,0979_pow_dnn_pow_oven_35_n04111531_9455.png
mlp_mixer_b_in21,1,980,NaN,bird,chair,pow,0980_pow_dnn_pow_chair_35_n04099969_5294.png
mlp_mixer_b_in21,1,981,NaN,bird,bicycle,pow,0981_pow_dnn_pow_bicycle_35_n02835271_9092.png
mlp_mixer_b_in21,1,982,NaN,bird,oven,0,0982_pow_dnn_0_oven_35_n04111531_7625.png
mlp_mixer_b_in21,1,983,NaN,bird,boat,0,0983_pow_dnn_0_boat_35_n03662601_6230.png
mlp_mixer_b_in21,1,984,NaN,bird,bottle,pow,0984_pow_dnn_pow_bottle_35_n03983396_12895.png
mlp_mixer_b_in21,1,985,NaN,dog,cat,0,0985_pow_dnn_0_cat_35_n02124075_13663.png
mlp_mixer_b_in21,1,986,NaN,car,bird,0,0986_pow_dnn_0_bird_35_n02028035_5332.png
mlp_mixer_b_in21,1,987,NaN,cat,car,pow,0987_pow_dnn_pow_car_35_n02814533_95669.png
mlp_mixer_b_in21,1,988,NaN,bird,bird,pow,0988_pow_dnn_pow_bird_35_n01819313_6752.png
mlp_mixer_b_in21,1,989,NaN,bird,oven,pow,0989_pow_dnn_pow_oven_35_n04111531_6211.png
mlp_mixer_b_in21,1,990,NaN,cat,oven,pow,0990_pow_dnn_pow_oven_35_n04111531_12103.png
mlp_mixer_b_in21,1,991,NaN,bird,boat,pow,0991_pow_dnn_pow_boat_35_n04612504_12657.png
mlp_mixer_b_in21,1,992,NaN,cat,clock,pow,0992_pow_dnn_pow_clock_35_n02708093_1023.png
mlp_mixer_b_in21,1,993,NaN,knife,keyboard,0,0993_pow_dnn_0_keyboard_35_n03085013_24522.png
mlp_mixer_b_in21,1,994,NaN,car,airplane,0,0994_pow_dnn_0_airplane_35_n02690373_19104.png
mlp_mixer_b_in21,1,995,NaN,bird,airplane,pow,0995_pow_dnn_pow_airplane_35_n02690373_5149.png
mlp_mixer_b_in21,1,996,NaN,bird,chair,pow,0996_pow_dnn_pow_chair_35_n04429376_30249.png
mlp_mixer_b_in21,1,997,NaN,bird,truck,pow,0997_pow_dnn_pow_truck_35_n04467665_37935.png
mlp_mixer_b_in21,1,998,NaN,bird,car,pow,0998_pow_dnn_pow_car_35_n02814533_96695.png
mlp_mixer_b_in21,1,999,NaN,bird,bicycle,pow,0999_pow_dnn_pow_bicycle_35_n03792782_471.png
mlp_mixer_b_in21,1,1000,NaN,car,airplane,0,1000_pow_dnn_0_airplane_35_n02690373_1229.png
mlp_mixer_b_in21,1,1001,NaN,car,bottle,0,1001_pow_dnn_0_bottle_35_n04560804_3801.png
mlp_mixer_b_in21,1,1002,NaN,cat,chair,pow,1002_pow_dnn_pow_chair_35_n04099969_5577.png
mlp_mixer_b_in21,1,1003,NaN,bird,elephant,pow,1003_pow_dnn_pow_elephant_35_n02504013_1081.png
mlp_mixer_b_in21,1,1004,NaN,bird,boat,0,1004_pow_dnn_0_boat_35_n03662601_5849.png
mlp_mixer_b_in21,1,1005,NaN,bird,airplane,0,1005_pow_dnn_0_airplane_35_n02690373_1797.png
mlp_mixer_b_in21,1,1006,NaN,chair,knife,pow,1006_pow_dnn_pow_knife_35_n03041632_36789.png
mlp_mixer_b_in21,1,1007,NaN,dog,dog,0,1007_pow_dnn_0_dog_35_n02087394_10517.png
mlp_mixer_b_in21,1,1008,NaN,dog,elephant,0,1008_pow_dnn_0_elephant_35_n02504013_3843.png
mlp_mixer_b_in21,1,1009,NaN,knife,airplane,pow,1009_pow_dnn_pow_airplane_35_n02690373_4578.png
mlp_mixer_b_in21,1,1010,NaN,bird,keyboard,pow,1010_pow_dnn_pow_keyboard_35_n04505470_4521.png
mlp_mixer_b_in21,1,1011,NaN,bird,truck,pow,1011_pow_dnn_pow_truck_35_n03796401_9105.png
mlp_mixer_b_in21,1,1012,NaN,dog,bear,0,1012_pow_dnn_0_bear_35_n02134418_4475.png
mlp_mixer_b_in21,1,1013,NaN,cat,bicycle,pow,1013_pow_dnn_pow_bicycle_35_n02835271_542.png
mlp_mixer_b_in21,1,1014,NaN,car,keyboard,0,1014_pow_dnn_0_keyboard_35_n03085013_21166.png
mlp_mixer_b_in21,1,1015,NaN,dog,bottle,pow,1015_pow_dnn_pow_bottle_35_n03937543_5625.png
mlp_mixer_b_in21,1,1016,NaN,oven,chair,0,1016_pow_dnn_0_chair_35_n04429376_10544.png
mlp_mixer_b_in21,1,1017,NaN,boat,truck,pow,1017_pow_dnn_pow_truck_35_n03417042_27931.png
mlp_mixer_b_in21,1,1018,NaN,bird,chair,pow,1018_pow_dnn_pow_chair_35_n04429376_10438.png
mlp_mixer_b_in21,1,1019,NaN,bird,airplane,0,1019_pow_dnn_0_airplane_35_n02690373_9165.png
mlp_mixer_b_in21,1,1020,NaN,bird,bottle,pow,1020_pow_dnn_pow_bottle_35_n02823428_5374.png
mlp_mixer_b_in21,1,1021,NaN,bird,dog,pow,1021_pow_dnn_pow_dog_35_n02109525_23299.png
mlp_mixer_b_in21,1,1022,NaN,dog,cat,pow,1022_pow_dnn_pow_cat_35_n02124075_10456.png
mlp_mixer_b_in21,1,1023,NaN,bird,car,0,1023_pow_dnn_0_car_35_n02814533_79224.png
mlp_mixer_b_in21,1,1024,NaN,elephant,car,pow,1024_pow_dnn_pow_car_35_n04285008_5699.png
mlp_mixer_b_in21,1,1025,NaN,dog,elephant,0,1025_pow_dnn_0_elephant_35_n02504458_6079.png
mlp_mixer_b_in21,1,1026,NaN,bird,truck,pow,1026_pow_dnn_pow_truck_35_n03417042_15903.png
mlp_mixer_b_in21,1,1027,NaN,dog,cat,pow,1027_pow_dnn_pow_cat_35_n02125311_40746.png
mlp_mixer_b_in21,1,1028,NaN,bird,bottle,pow,1028_pow_dnn_pow_bottle_35_n03983396_9695.png
mlp_mixer_b_in21,1,1029,NaN,chair,bird,pow,1029_pow_dnn_pow_bird_35_n01614925_5578.png
mlp_mixer_b_in21,1,1030,NaN,bird,clock,pow,1030_pow_dnn_pow_clock_35_n02708093_6.png
mlp_mixer_b_in21,1,1031,NaN,elephant,keyboard,0,1031_pow_dnn_0_keyboard_35_n03085013_20906.png
mlp_mixer_b_in21,1,1032,NaN,bird,bicycle,pow,1032_pow_dnn_pow_bicycle_35_n03792782_5034.png
mlp_mixer_b_in21,1,1033,NaN,bird,elephant,pow,1033_pow_dnn_pow_elephant_35_n02504013_6552.png
mlp_mixer_b_in21,1,1034,NaN,bird,car,pow,1034_pow_dnn_pow_car_35_n04285008_5528.png
mlp_mixer_b_in21,1,1035,NaN,bird,bottle,pow,1035_pow_dnn_pow_bottle_35_n04591713_7005.png
mlp_mixer_b_in21,1,1036,NaN,dog,keyboard,pow,1036_pow_dnn_pow_keyboard_35_n04505470_1253.png
mlp_mixer_b_in21,1,1037,NaN,bird,truck,pow,1037_pow_dnn_pow_truck_35_n04467665_63626.png
mlp_mixer_b_in21,1,1038,NaN,car,keyboard,0,1038_pow_dnn_0_keyboard_35_n03085013_19096.png
mlp_mixer_b_in21,1,1039,NaN,dog,knife,0,1039_pow_dnn_0_knife_35_n03041632_11475.png
mlp_mixer_b_in21,1,1040,NaN,bird,knife,0,1040_pow_dnn_0_knife_35_n03041632_102887.png
mlp_mixer_b_in21,1,1041,NaN,dog,elephant,0,1041_pow_dnn_0_elephant_35_n02504458_6618.png
mlp_mixer_b_in21,1,1042,NaN,dog,bottle,pow,1042_pow_dnn_pow_bottle_35_n04557648_4620.png
mlp_mixer_b_in21,1,1043,NaN,cat,clock,pow,1043_pow_dnn_pow_clock_35_n02708093_2710.png
mlp_mixer_b_in21,1,1044,NaN,bird,chair,pow,1044_pow_dnn_pow_chair_35_n02791124_15457.png
mlp_mixer_b_in21,1,1045,NaN,bird,truck,0,1045_pow_dnn_0_truck_35_n03796401_15097.png
mlp_mixer_b_in21,1,1046,NaN,cat,knife,0,1046_pow_dnn_0_knife_35_n03041632_37274.png
mlp_mixer_b_in21,1,1047,NaN,dog,cat,0,1047_pow_dnn_0_cat_35_n02125311_20179.png
mlp_mixer_b_in21,1,1048,NaN,elephant,chair,0,1048_pow_dnn_0_chair_35_n03376595_9653.png
mlp_mixer_b_in21,1,1049,NaN,dog,dog,0,1049_pow_dnn_0_dog_35_n02112706_3099.png
mlp_mixer_b_in21,1,1050,NaN,bird,truck,0,1050_pow_dnn_0_truck_35_n03417042_7036.png
mlp_mixer_b_in21,1,1051,NaN,bird,oven,pow,1051_pow_dnn_pow_oven_35_n04111531_1989.png
mlp_mixer_b_in21,1,1052,NaN,bird,bear,pow,1052_pow_dnn_pow_bear_35_n02134418_3232.png
mlp_mixer_b_in21,1,1053,NaN,bird,bottle,0,1053_pow_dnn_0_bottle_35_n03983396_13698.png
mlp_mixer_b_in21,1,1054,NaN,dog,elephant,pow,1054_pow_dnn_pow_elephant_35_n02504458_6120.png
mlp_mixer_b_in21,1,1055,NaN,dog,bear,0,1055_pow_dnn_0_bear_35_n02134084_21207.png
mlp_mixer_b_in21,1,1056,NaN,bird,bicycle,0,1056_pow_dnn_0_bicycle_35_n02835271_4534.png
mlp_mixer_b_in21,1,1057,NaN,bird,truck,0,1057_pow_dnn_0_truck_35_n04467665_64402.png
mlp_mixer_b_in21,1,1058,NaN,car,knife,pow,1058_pow_dnn_pow_knife_35_n03041632_12651.png
mlp_mixer_b_in21,1,1059,NaN,bird,elephant,pow,1059_pow_dnn_pow_elephant_35_n02504013_7353.png
mlp_mixer_b_in21,1,1060,NaN,bird,oven,pow,1060_pow_dnn_pow_oven_35_n04111531_892.png
mlp_mixer_b_in21,1,1061,NaN,bird,boat,pow,1061_pow_dnn_pow_boat_35_n02951358_28889.png
mlp_mixer_b_in21,1,1062,NaN,dog,bear,0,1062_pow_dnn_0_bear_35_n02132136_8033.png
mlp_mixer_b_in21,1,1063,NaN,truck,bear,0,1063_pow_dnn_0_bear_35_n02133161_1360.png
mlp_mixer_b_in21,1,1064,NaN,dog,elephant,0,1064_pow_dnn_0_elephant_35_n02504013_5186.png
mlp_mixer_b_in21,1,1065,NaN,car,car,0,1065_pow_dnn_0_car_35_n04285008_4749.png
mlp_mixer_b_in21,1,1066,NaN,truck,bird,0,1066_pow_dnn_0_bird_35_n01616318_1935.png
mlp_mixer_b_in21,1,1067,NaN,chair,airplane,0,1067_pow_dnn_0_airplane_35_n02690373_5126.png
mlp_mixer_b_in21,1,1068,NaN,knife,car,0,1068_pow_dnn_0_car_35_n02814533_4449.png
mlp_mixer_b_in21,1,1069,NaN,bird,dog,pow,1069_pow_dnn_pow_dog_35_n02105056_6724.png
mlp_mixer_b_in21,1,1070,NaN,clock,oven,0,1070_pow_dnn_0_oven_35_n04111531_12843.png
mlp_mixer_b_in21,1,1071,NaN,bird,clock,pow,1071_pow_dnn_pow_clock_35_n03196217_2859.png
mlp_mixer_b_in21,1,1072,NaN,elephant,cat,pow,1072_pow_dnn_pow_cat_35_n02123394_2573.png
mlp_mixer_b_in21,1,1073,NaN,truck,clock,pow,1073_pow_dnn_pow_clock_35_n02708093_384.png
mlp_mixer_b_in21,1,1074,NaN,bird,airplane,pow,1074_pow_dnn_pow_airplane_35_n02690373_4320.png
mlp_mixer_b_in21,1,1075,NaN,dog,knife,pow,1075_pow_dnn_pow_knife_35_n03041632_56436.png
mlp_mixer_b_in21,1,1076,NaN,bird,boat,0,1076_pow_dnn_0_boat_35_n03344393_4106.png
mlp_mixer_b_in21,1,1077,NaN,car,airplane,0,1077_pow_dnn_0_airplane_35_n02690373_9802.png
mlp_mixer_b_in21,1,1078,NaN,truck,bear,0,1078_pow_dnn_0_bear_35_n02134418_2547.png
mlp_mixer_b_in21,1,1079,NaN,dog,clock,pow,1079_pow_dnn_pow_clock_35_n04548280_6792.png
mlp_mixer_b_in21,1,1080,NaN,car,keyboard,0,1080_pow_dnn_0_keyboard_35_n03085013_10659.png
mlp_mixer_b_in21,1,1081,NaN,knife,keyboard,pow,1081_pow_dnn_pow_keyboard_35_n03085013_24374.png
mlp_mixer_b_in21,1,1082,NaN,bird,car,pow,1082_pow_dnn_pow_car_35_n03100240_3874.png
mlp_mixer_b_in21,1,1083,NaN,car,chair,pow,1083_pow_dnn_pow_chair_35_n03376595_2916.png
mlp_mixer_b_in21,1,1084,NaN,dog,bear,0,1084_pow_dnn_0_bear_35_n02134084_3840.png
mlp_mixer_b_in21,1,1085,NaN,cat,oven,pow,1085_pow_dnn_pow_oven_35_n04111531_452.png
mlp_mixer_b_in21,1,1086,NaN,truck,boat,0,1086_pow_dnn_0_boat_35_n03344393_7412.png
mlp_mixer_b_in21,1,1087,NaN,dog,bear,pow,1087_pow_dnn_pow_bear_35_n02134084_9539.png
mlp_mixer_b_in21,1,1088,NaN,chair,keyboard,0,1088_pow_dnn_0_keyboard_35_n03085013_23086.png
mlp_mixer_b_in21,1,1089,NaN,bird,bicycle,pow,1089_pow_dnn_pow_bicycle_35_n03792782_56250.png
mlp_mixer_b_in21,1,1090,NaN,chair,truck,0,1090_pow_dnn_0_truck_35_n03417042_9023.png
mlp_mixer_b_in21,1,1091,NaN,elephant,cat,pow,1091_pow_dnn_pow_cat_35_n02124075_9723.png
mlp_mixer_b_in21,1,1092,NaN,elephant,boat,pow,1092_pow_dnn_pow_boat_35_n04273569_27839.png
mlp_mixer_b_in21,1,1093,NaN,bird,cat,pow,1093_pow_dnn_pow_cat_35_n02123394_530.png
mlp_mixer_b_in21,1,1094,NaN,bird,elephant,pow,1094_pow_dnn_pow_elephant_35_n02504013_6420.png
mlp_mixer_b_in21,1,1095,NaN,bird,clock,0,1095_pow_dnn_0_clock_35_n04548280_7565.png
mlp_mixer_b_in21,1,1096,NaN,oven,chair,0,1096_pow_dnn_0_chair_35_n04099969_8029.png
mlp_mixer_b_in21,1,1097,NaN,dog,dog,0,1097_pow_dnn_0_dog_35_n02100583_5392.png
mlp_mixer_b_in21,1,1098,NaN,dog,elephant,0,1098_pow_dnn_0_elephant_35_n02504013_1916.png
mlp_mixer_b_in21,1,1099,NaN,chair,keyboard,0,1099_pow_dnn_0_keyboard_35_n03085013_20138.png
mlp_mixer_b_in21,1,1100,NaN,bird,bicycle,0,1100_pow_dnn_0_bicycle_35_n02835271_3256.png
mlp_mixer_b_in21,1,1101,NaN,keyboard,clock,pow,1101_pow_dnn_pow_clock_35_n04548280_3999.png
mlp_mixer_b_in21,1,1102,NaN,car,bird,pow,1102_pow_dnn_pow_bird_35_n02025239_15554.png
mlp_mixer_b_in21,1,1103,NaN,bird,knife,pow,1103_pow_dnn_pow_knife_35_n03041632_76163.png
mlp_mixer_b_in21,1,1104,NaN,dog,cat,0,1104_pow_dnn_0_cat_35_n02125311_55770.png
mlp_mixer_b_in21,1,1105,NaN,car,chair,pow,1105_pow_dnn_pow_chair_35_n03376595_596.png
mlp_mixer_b_in21,1,1106,NaN,dog,dog,0,1106_pow_dnn_0_dog_35_n02094258_654.png
mlp_mixer_b_in21,1,1107,NaN,truck,bottle,0,1107_pow_dnn_0_bottle_35_n04560804_20335.png
mlp_mixer_b_in21,1,1108,NaN,knife,cat,pow,1108_pow_dnn_pow_cat_35_n02123597_589.png
mlp_mixer_b_in21,1,1109,NaN,oven,clock,0,1109_pow_dnn_0_clock_35_n02708093_8079.png
mlp_mixer_b_in21,1,1110,NaN,knife,knife,0,1110_pow_dnn_0_knife_35_n03041632_3247.png
mlp_mixer_b_in21,1,1111,NaN,bird,oven,pow,1111_pow_dnn_pow_oven_35_n04111531_6181.png
mlp_mixer_b_in21,1,1112,NaN,bird,bicycle,pow,1112_pow_dnn_pow_bicycle_35_n02835271_11573.png
mlp_mixer_b_in21,1,1113,NaN,chair,truck,0,1113_pow_dnn_0_truck_35_n03417042_15893.png
mlp_mixer_b_in21,1,1114,NaN,truck,keyboard,pow,1114_pow_dnn_pow_keyboard_35_n03085013_20453.png
mlp_mixer_b_in21,1,1115,NaN,boat,boat,pow,1115_pow_dnn_pow_boat_35_n04273569_15625.png
mlp_mixer_b_in21,1,1116,NaN,bird,truck,0,1116_pow_dnn_0_truck_35_n03417042_27966.png
mlp_mixer_b_in21,1,1117,NaN,knife,bottle,pow,1117_pow_dnn_pow_bottle_35_n03983396_16742.png
mlp_mixer_b_in21,1,1118,NaN,bird,airplane,pow,1118_pow_dnn_pow_airplane_35_n02690373_763.png
mlp_mixer_b_in21,1,1119,NaN,car,bird,pow,1119_pow_dnn_pow_bird_35_n01532829_15193.png
mlp_mixer_b_in21,1,1120,NaN,oven,knife,0,1120_pow_dnn_0_knife_35_n03041632_44238.png
